File: table.csv
,Carbon concentration / (weight%),Silicon concentration / (weight%),Manganese concentration / (weight%),Sulphur concentration / (weight%),Phosphorus concentration / (weight%),Nickel concentration / (weight%),Chromium concentration / (weight%),Molybdenum concentration / (weight%),Vanadium concentration / (weight%),Copper concentration / (weight%),Cobalt concentration / (weight%),Tungsten concentration / (weight%),Oxygen concentration / parts per million by weight,Titanium concentration / parts per million by weight,Nitrogen concentration / parts per million by weight,Aluminium concentration / parts per million by weight,Boron concentration / parts per million by weight,Niobium concentration / parts per million by weight,Tin concentration / parts per million by weight,Arsenic concentration / parts per million by weight,Antimony concentration / parts per million by weight,Current / A,Voltage / V,AC or DC,Electrode positive or negative,Heat input / kJmm-1,Interpass temperature / °C,Post weld heat treatment temperature / °C,Post weld heat treatment time / hours,Yield strength / MPa,Ultimate tensile strength / MPa,Elongation / %,Reduction of Area / %,Charpy temperature / °C,Charpy impact toughness / J,Hardness / kgmm-2,50% FATT,Primary ferrite in microstructure / %,Ferrite with second phase / %,Acicular ferrite / %,Martensite / %,Ferrite with carbide aggreagate / %,Type of weld_FCA,Type of weld_GMAA,Type of weld_GTAA,Type of weld_MMA,Type of weld_NGGMA,Type of weld_NGSAW,Type of weld_SA,Type of weld_SAA,Type of weld_ShMA,Type of weld_TSA
0,0.037,0.3,0.65,0.008,0.012,0.0,,,,,,,,,,,,,,,,170.0,21.0,1.0,1.0,1.0,200.0,250.0,14.0,392.0,466.0,31.9,80.6,,,,,,,,,,0.0,0.0,0.0,1.0,0.0,0.0,0.0,0.0,0.0,0.0
6,0.044,0.35,1.43,0.007,0.014,0.0,,,,,,,,,,,,,,,,170.0,21.0,1.0,1.0,1.0,200.0,250.0,14.0,468.0,551.0,29.4,78.7,,,,,,,,,,0.0,0.0,0.0,1.0,0.0,0.0,0.0,0.0,0.0,0.0
12,0.039,0.32,0.66,0.006,0.011,0.53,,,,,,,,,,,,,,,,170.0,21.0,1.0,1.0,1.0,200.0,250.0,14.0,411.0,484.0,32.6,79.3,,,,,,,,,,0.0,0.0,0.0,1.0,0.0,0.0,0.0,0.0,0.0,0.0
18,0.051,0.32,1.4,0.007,0.014,0.47,,,,,,,,,,,,,,,,170.0,21.0,1.0,1.0,1.0,200.0,580.0,2.0,450.0,536.0,28.2,78.8,,,,,,,,,,0.0,0.0,0.0,1.0,0.0,0.0,0.0,0.0,0.0,0.0
24,0.038,0.31,0.63,0.007,0.012,1.09,,,,,,,,,,,,,,,,170.0,21.0,1.0,1.0,1.0,200.0,580.0,2.0,411.0,493.0,33.6,79.7,-40.0,100.0,,,,,,,,0.0,0.0,0.0,1.0,0.0,0.0,0.0,0.0,0.0,0.0
30,0.049,0.35,1.37,0.007,0.013,1.06,,,,,,,,,,,,,,,,170.0,21.0,1.0,1.0,1.0,200.0,580.0,2.0,470.0,557.0,30.2,76.0,-20.0,100.0,,,,,,,,0.0,0.0,0.0,1.0,0.0,0.0,0.0,0.0,0.0,0.0
36,0.041,0.3,0.62,0.007,0.01,2.38,,,,,,,,,,,,,,,,170.0,21.0,1.0,1.0,1.0,200.0,580.0,2.0,431.0,518.0,32.2,76.9,-41.0,100.0,,,,,,,,0.0,0.0,0.0,1.0,0.0,0.0,0.0,0.0,0.0,0.0
42,0.049,0.32,1.41,0.007,0.014,2.32,,,,,,,,,,,,,,,,170.0,21.0,1.0,1.0,1.0,200.0,580.0,2.0,530.0,615.0,26.6,73.0,-20.0,100.0,,,,,,,,0.0,0.0,0.0,1.0,0.0,0.0,0.0,0.0,0.0,0.0
48,0.037,0.3,0.65,0.009,0.011,3.5,,,,,,,,,,,,,,,,170.0,21.0,1.0,1.0,1.0,200.0,580.0,2.0,482.0,560.0,31.4,48.8,-63.0,100.0,,,,,,,,0.0,0.0,0.0,1.0,0.0,0.0,0.0,0.0,0.0,0.0
54,0.048,0.33,1.4,0.007,0.013,3.47,,,,,,,,,,,,,,,,170.0,21.0,1.0,1.0,1.0,200.0,580.0,2.0,584.0,677.0,26.6,70.8,56.0,100.0,,,,,,,,0.0,0.0,0.0,1.0,0.0,0.0,0.0,0.0,0.0,0.0
60,0.075,0.36,1.48,0.007,0.006,,,,,0.11,,,390.0,40.0,,,,,,,,170.0,21.0,1.0,1.0,1.0,150.0,0.0,0.0,502.0,578.0,27.6,77.0,,,,,,,,,,0.0,0.0,0.0,1.0,0.0,0.0,0.0,0.0,0.0,0.0
66,0.068,0.32,1.49,0.006,0.006,,,,,0.66,,,390.0,40.0,,,,,,,,170.0,21.0,1.0,1.0,1.0,150.0,0.0,0.0,513.0,593.0,28.6,77.0,,,,,,,,,,0.0,0.0,0.0,1.0,0.0,0.0,0.0,0.0,0.0,0.0
72,0.074,0.29,1.49,0.006,0.013,,,,,,,,471.0,5.0,72.0,6.0,,,,,,170.0,21.0,1.0,1.0,1.0,200.0,0.0,0.0,,,,,-19.0,100.0,,,,,,,,0.0,0.0,0.0,1.0,0.0,0.0,0.0,0.0,0.0,0.0
78,0.076,0.34,1.36,0.005,0.011,,,,,,,,476.0,5.0,57.0,150.0,,,,,,170.0,21.0,1.0,1.0,1.0,200.0,250.0,14.0,437.0,527.0,24.6,78.9,,,,,,,,,,0.0,0.0,0.0,1.0,0.0,0.0,0.0,0.0,0.0,0.0
84,0.079,0.39,1.37,0.005,0.011,,,,,,,,446.0,5.0,47.0,250.0,,,,,,170.0,21.0,1.0,1.0,1.0,200.0,0.0,0.0,,,,,-25.0,100.0,,,,,,,,0.0,0.0,0.0,1.0,0.0,0.0,0.0,0.0,0.0,0.0
90,0.081,0.48,1.42,0.004,0.006,,,,,,,,444.0,4.0,46.0,660.0,,,,,,170.0,21.0,1.0,1.0,1.0,200.0,250.0,14.0,466.0,551.0,26.2,78.9,,,,,,,,,,0.0,0.0,0.0,1.0,0.0,0.0,0.0,0.0,0.0,0.0
96,0.069,0.3,1.36,0.007,0.009,,,,,,,,432.0,37.0,68.0,5.0,,,,,,170.0,21.0,1.0,1.0,1.0,200.0,0.0,0.0,,,,,-72.0,100.0,,,,,,,,0.0,0.0,0.0,1.0,0.0,0.0,0.0,0.0,0.0,0.0
102,0.076,0.37,1.36,0.005,0.009,,,,,,,,422.0,36.0,53.0,190.0,,,,,,170.0,21.0,1.0,1.0,1.0,200.0,250.0,14.0,485.0,549.0,31.4,79.8,,,,,,,,,,0.0,0.0,0.0,1.0,0.0,0.0,0.0,0.0,0.0,0.0
108,0.078,0.44,1.31,0.005,0.008,,,,,,,,431.0,36.0,50.0,340.0,,,,,,170.0,21.0,1.0,1.0,1.0,200.0,0.0,0.0,,,,,-63.0,100.0,,,,,,,,0.0,0.0,0.0,1.0,0.0,0.0,0.0,0.0,0.0,0.0
114,0.079,0.57,1.32,0.004,0.008,,,,,,,,422.0,38.0,52.0,610.0,,,,,,170.0,21.0,1.0,1.0,1.0,200.0,250.0,14.0,491.0,570.0,29.2,77.0,,,,,,,,,,0.0,0.0,0.0,1.0,0.0,0.0,0.0,0.0,0.0,0.0
120,0.074,0.32,1.5,0.006,0.006,,,,,,,,375.0,99.0,89.0,8.0,,,,,,170.0,21.0,1.0,1.0,1.0,200.0,0.0,0.0,,,,,-52.0,100.0,,,,,,,,0.0,0.0,0.0,1.0,0.0,0.0,0.0,0.0,0.0,0.0
126,0.071,0.39,1.36,0.005,0.009,,,,,,,,381.0,92.0,52.0,160.0,,,,,,170.0,21.0,1.0,1.0,1.0,200.0,0.0,0.0,,,,,-56.0,100.0,,,,,,,,0.0,0.0,0.0,1.0,0.0,0.0,0.0,0.0,0.0,0.0
132,0.069,0.51,1.39,0.004,0.008,,,,,,,,379.0,69.0,41.0,480.0,,,,,,170.0,21.0,1.0,1.0,1.0,200.0,0.0,0.0,,,,,-54.0,100.0,,,,,,,,0.0,0.0,0.0,1.0,0.0,0.0,0.0,0.0,0.0,0.0
138,0.081,0.34,1.54,0.007,0.008,,,,,,,,312.0,180.0,80.0,3.0,,,,,,170.0,21.0,1.0,1.0,1.0,200.0,0.0,0.0,,,,,-52.0,100.0,,,,,,,,0.0,0.0,0.0,1.0,0.0,0.0,0.0,0.0,0.0,0.0
144,0.072,0.34,1.33,0.006,0.008,,,,,,,,427.0,190.0,57.0,150.0,,,,,,170.0,21.0,1.0,1.0,1.0,200.0,250.0,14.0,467.0,522.0,29.2,77.0,,,,,,,,,,0.0,0.0,0.0,1.0,0.0,0.0,0.0,0.0,0.0,0.0
150,0.074,0.41,1.36,0.005,0.005,,,,,,,,418.0,260.0,49.0,320.0,,,,,,170.0,21.0,1.0,1.0,1.0,200.0,0.0,0.0,,,,,-47.0,100.0,,,,,,,,0.0,0.0,0.0,1.0,0.0,0.0,0.0,0.0,0.0,0.0
156,0.066,0.44,1.33,0.004,0.008,,,,,,,,454.0,240.0,49.0,680.0,,,,,,170.0,21.0,1.0,1.0,1.0,200.0,250.0,14.0,522.0,591.0,23.8,71.9,,,,,,,,,,0.0,0.0,0.0,1.0,0.0,0.0,0.0,0.0,0.0,0.0
162,0.069,0.43,1.49,0.004,0.005,,,,,,,,294.0,460.0,77.0,1.0,,,,,,170.0,21.0,1.0,1.0,1.0,200.0,0.0,0.0,,,,,-60.0,100.0,,,,,,,,0.0,0.0,0.0,1.0,0.0,0.0,0.0,0.0,0.0,0.0
168,0.071,0.42,1.39,0.007,0.005,,,,,,,,446.0,420.0,65.0,150.0,,,,,,170.0,21.0,1.0,1.0,1.0,200.0,250.0,14.0,531.0,587.0,25.2,78.0,,,,,,,,,,0.0,0.0,0.0,1.0,0.0,0.0,0.0,0.0,0.0,0.0
174,0.071,0.52,1.44,0.005,0.005,,,,,,,,466.0,460.0,67.0,300.0,,,,,,170.0,21.0,1.0,1.0,1.0,200.0,0.0,0.0,,,,,-49.0,100.0,,,,,,,,0.0,0.0,0.0,1.0,0.0,0.0,0.0,0.0,0.0,0.0
180,0.067,0.57,1.4,0.005,0.005,,,,,,,,451.0,450.0,60.0,500.0,,,,,,170.0,21.0,1.0,1.0,1.0,200.0,250.0,14.0,547.0,616.0,22.6,75.0,,,,,,,,,,0.0,0.0,0.0,1.0,0.0,0.0,0.0,0.0,0.0,0.0
186,0.09,0.18,0.98,0.008,0.012,,8.9,1.0,0.22,,,,642.0,,460.0,,3.0,520.0,,,,180.0,34.0,1.0,1.0,1.0,175.0,750.0,8.0,,,,,-13.0,50.0,,,,,,,,0.0,0.0,0.0,1.0,0.0,0.0,0.0,0.0,0.0,0.0
192,0.091,0.2,1.04,0.007,0.013,,9.02,1.01,0.24,,,,591.0,,480.0,,32.0,620.0,,,,180.0,34.0,1.0,1.0,1.0,175.0,750.0,8.0,642.0,778.0,16.8,59.8,,,,,,,,,,0.0,0.0,0.0,1.0,0.0,0.0,0.0,0.0,0.0,0.0
198,0.089,0.22,1.05,0.007,0.013,,9.0,1.04,0.23,,,,592.0,,460.0,,64.0,700.0,,,,180.0,34.0,1.0,1.0,1.0,175.0,750.0,8.0,,,,,21.0,50.0,,,,,,,,0.0,0.0,0.0,1.0,0.0,0.0,0.0,0.0,0.0,0.0
204,0.086,0.2,1.01,0.007,0.012,,8.9,1.01,0.21,,,,596.0,,160.0,,19.0,510.0,,,,180.0,34.0,1.0,1.0,1.0,175.0,750.0,8.0,569.0,709.0,17.4,62.7,,,,,,,,,,0.0,0.0,0.0,1.0,0.0,0.0,0.0,0.0,0.0,0.0
210,0.086,0.2,1.04,0.008,0.013,,8.98,1.01,0.22,,,,567.0,,160.0,,36.0,560.0,,,,180.0,34.0,1.0,1.0,1.0,175.0,750.0,8.0,,,,,-1.0,50.0,,,,,,,,0.0,0.0,0.0,1.0,0.0,0.0,0.0,0.0,0.0,0.0
216,0.037,0.3,0.65,0.008,0.012,,0.0,,,,,,,,,,,,,,,170.0,21.0,1.0,1.0,1.0,200.0,250.0,14.0,392.0,466.0,31.9,80.6,,,,,,,,,,0.0,0.0,0.0,1.0,0.0,0.0,0.0,0.0,0.0,0.0
222,0.044,0.35,1.43,0.007,0.014,,0.0,,,,,,,,,,,,,,,170.0,21.0,1.0,1.0,1.0,200.0,250.0,14.0,468.0,551.0,29.4,78.7,,,,,,,,,,0.0,0.0,0.0,1.0,0.0,0.0,0.0,0.0,0.0,0.0
228,0.038,0.3,0.65,0.007,0.014,,0.22,,,,,,,,,,,,,,,170.0,21.0,1.0,1.0,1.0,200.0,250.0,14.0,422.0,496.0,30.4,78.8,,,,,,,,,,0.0,0.0,0.0,1.0,0.0,0.0,0.0,0.0,0.0,0.0
234,0.044,0.32,1.45,0.007,0.013,,0.24,,,,,,,,,,,,,,,170.0,21.0,1.0,1.0,1.0,200.0,580.0,2.0,468.0,559.0,28.0,76.9,,,,,,,,,,0.0,0.0,0.0,1.0,0.0,0.0,0.0,0.0,0.0,0.0
240,0.04,0.33,0.6,0.006,0.01,,0.51,,,,,,,,,,,,,,,170.0,21.0,1.0,1.0,1.0,200.0,0.0,0.0,,,,,-17.0,100.0,,,,,,,,0.0,0.0,0.0,1.0,0.0,0.0,0.0,0.0,0.0,0.0
246,0.047,0.33,1.42,0.006,0.01,,0.53,,,,,,,,,,,,,,,170.0,21.0,1.0,1.0,1.0,200.0,0.0,0.0,,,,,-44.0,100.0,,,,,,,,0.0,0.0,0.0,1.0,0.0,0.0,0.0,0.0,0.0,0.0
252,0.041,0.3,0.59,0.009,0.011,,1.0,,,,,,,,,,,,,,,170.0,21.0,1.0,1.0,1.0,200.0,0.0,0.0,,,,,-10.0,100.0,,,,,,,,0.0,0.0,0.0,1.0,0.0,0.0,0.0,0.0,0.0,0.0
258,0.048,0.33,1.37,0.008,0.013,,1.08,,,,,,,,,,,,,,,170.0,21.0,1.0,1.0,1.0,200.0,0.0,0.0,,,,,-40.0,100.0,,,,,,,,0.0,0.0,0.0,1.0,0.0,0.0,0.0,0.0,0.0,0.0
264,0.041,0.27,0.59,0.009,0.011,,2.34,,,,,,,,,,,,,,,170.0,21.0,1.0,1.0,1.0,200.0,0.0,0.0,,,,,9.0,100.0,,,,,,,,0.0,0.0,0.0,1.0,0.0,0.0,0.0,0.0,0.0,0.0
270,0.05,0.31,1.29,0.008,0.011,,2.32,,,,,,,,,,,,,,,170.0,21.0,1.0,1.0,1.0,200.0,0.0,0.0,,,,,9.0,100.0,,,0.0,100.0,0.0,0.0,0.0,0.0,0.0,0.0,1.0,0.0,0.0,0.0,0.0,0.0,0.0
276,0.069,0.3,1.36,0.007,0.009,,,,0.000268982,,,,432.0,37.0,,2.93205,4.24411,0.161275,,,,170.0,21.0,1.0,1.0,1.0,200.0,0.0,0.0,,,,,-72.0,100.0,,,,,,,,0.0,0.0,0.0,1.0,0.0,0.0,0.0,0.0,0.0,0.0
282,0.073,0.33,1.39,0.007,0.008,,,,2.25439e-05,,,,427.0,39.0,,20.0,2.43385,4.77689,,,,170.0,21.0,1.0,1.0,1.0,200.0,0.0,0.0,,,,,-95.0,28.0,,,,,,,,0.0,0.0,0.0,1.0,0.0,0.0,0.0,0.0,0.0,0.0
288,0.078,0.32,1.39,0.007,0.009,,,,0.000314634,,,,436.0,42.0,,44.0,4.25927,2.95928,,,,170.0,21.0,1.0,1.0,1.0,200.0,0.0,0.0,,,,,-60.0,100.0,,,,,,,,0.0,0.0,0.0,1.0,0.0,0.0,0.0,0.0,0.0,0.0
294,0.08,0.33,1.41,0.006,0.009,,,,0.00034603,,,,432.0,43.0,,78.0,0.0775991,3.68946,,,,170.0,21.0,1.0,1.0,1.0,200.0,0.0,0.0,,,,,-55.0,100.0,,,,,,,,0.0,0.0,0.0,1.0,0.0,0.0,0.0,0.0,0.0,0.0
300,0.08,0.37,1.42,0.006,0.009,,,,3.62131e-05,,,,439.0,43.0,,120.0,4.94954,2.20974,,,,170.0,21.0,1.0,1.0,1.0,200.0,0.0,0.0,,,,,-86.0,28.0,,,,,,,,0.0,0.0,0.0,1.0,0.0,0.0,0.0,0.0,0.0,0.0
306,0.076,0.37,1.36,0.005,0.009,,,,0.000223645,,,,422.0,36.0,,190.0,1.69519,1.33308,,,,170.0,21.0,1.0,1.0,1.0,200.0,0.0,0.0,,,,,-86.0,28.0,,,,,,,,0.0,0.0,0.0,1.0,0.0,0.0,0.0,0.0,0.0,0.0
312,0.078,0.44,1.31,0.005,0.008,,,,0.000319155,,,,431.0,36.0,,340.0,2.23884,1.05589,,,,170.0,21.0,1.0,1.0,1.0,200.0,250.0,14.0,491.0,564.0,28.2,78.9,,,,,,,,,,0.0,0.0,0.0,1.0,0.0,0.0,0.0,0.0,0.0,0.0
318,0.078,0.44,1.31,0.005,0.008,,,,0.000471469,,,,431.0,36.0,,340.0,1.95453,2.38172,,,,170.0,21.0,1.0,1.0,1.0,200.0,580.0,2.0,,,,,-74.0,100.0,,,,,,,,0.0,0.0,0.0,1.0,0.0,0.0,0.0,0.0,0.0,0.0
324,0.076,0.51,1.3,0.005,0.008,,,,0.000324533,,,,423.0,43.0,,490.0,2.42144,1.83156,,,,170.0,21.0,1.0,1.0,1.0,200.0,580.0,2.0,,,,,-84.0,28.0,,,,,,,,0.0,0.0,0.0,1.0,0.0,0.0,0.0,0.0,0.0,0.0
330,0.079,0.57,1.32,0.004,0.008,,,,0.000256407,,,,422.0,38.0,,610.0,3.56315,3.79459,,,,170.0,21.0,1.0,1.0,1.0,200.0,580.0,2.0,443.0,550.0,29.4,76.0,,,,,,,,,,0.0,0.0,0.0,1.0,0.0,0.0,0.0,0.0,0.0,0.0
336,0.071,0.36,0.63,0.007,0.006,,,,0.021,,,,435.0,43.0,78.0,3.26579,4.25055,5.0,,,,170.0,21.0,1.0,1.0,1.0,200.0,250.0,14.0,436.0,513.0,29.2,77.0,,,,,,,,,,0.0,0.0,0.0,1.0,0.0,0.0,0.0,0.0,0.0,0.0
342,0.074,0.36,0.63,0.008,0.005,,,,0.06,,,,432.0,31.0,75.0,1.03801,0.934996,5.0,,,,170.0,21.0,1.0,1.0,1.0,200.0,250.0,14.0,488.0,548.0,25.6,77.5,,,,,,,,,,0.0,0.0,0.0,1.0,0.0,0.0,0.0,0.0,0.0,0.0
348,0.077,0.35,1.02,0.007,0.005,,,,0.0004,,,,399.0,41.0,75.0,2.31243,3.8158,5.0,,,,170.0,21.0,1.0,1.0,1.0,200.0,250.0,14.0,443.0,522.0,31.1,77.0,,,,,,,,,,0.0,0.0,0.0,1.0,0.0,0.0,0.0,0.0,0.0,0.0
354,0.078,0.31,1.04,0.007,0.006,,,,0.044,,,,429.0,32.0,48.0,0.221875,4.74818,5.0,,,,170.0,21.0,1.0,1.0,1.0,200.0,250.0,14.0,505.0,570.0,24.8,77.4,,,,,,,,,,0.0,0.0,0.0,1.0,0.0,0.0,0.0,0.0,0.0,0.0
360,0.077,0.32,1.05,0.008,0.006,,,,0.085,,,,400.0,34.0,72.0,1.58412,4.73814,5.0,,,,170.0,21.0,1.0,1.0,1.0,200.0,250.0,14.0,538.0,592.0,25.2,74.0,,,,,,,,,,0.0,0.0,0.0,1.0,0.0,0.0,0.0,0.0,0.0,0.0
366,0.072,0.33,1.22,0.008,0.006,,,,0.019,,,,447.0,29.0,85.0,0.530146,0.30808,5.0,,,,170.0,21.0,1.0,1.0,1.0,200.0,250.0,14.0,486.0,545.0,29.6,78.2,,,,,,,,,,0.0,0.0,0.0,1.0,0.0,0.0,0.0,0.0,0.0,0.0
372,0.078,0.3,1.35,0.007,0.007,,,,0.0595,,,,405.0,30.0,76.0,1.30327,0.155848,5.0,,,,170.0,21.0,1.0,1.0,1.0,200.0,250.0,14.0,521.0,589.0,22.6,76.0,,,,,,,,,,0.0,0.0,0.0,1.0,0.0,0.0,0.0,0.0,0.0,0.0
378,0.076,0.29,1.74,0.008,0.006,,,,0.0004,,,,415.0,35.0,92.0,1.88026,2.28247,6.0,,,,170.0,21.0,1.0,1.0,1.0,200.0,250.0,14.0,500.0,571.0,28.8,77.0,,,,,,,,,,0.0,0.0,0.0,1.0,0.0,0.0,0.0,0.0,0.0,0.0
384,0.077,0.26,1.72,0.007,0.008,,,,0.041,,,,423.0,25.0,74.0,4.4398,0.983756,5.0,,,,170.0,21.0,1.0,1.0,1.0,200.0,250.0,14.0,578.0,617.0,21.8,75.0,,,,,,,,,,0.0,0.0,0.0,1.0,0.0,0.0,0.0,0.0,0.0,0.0
390,0.08,0.26,1.74,0.007,0.008,,,,0.083,,,,411.0,25.0,90.0,2.62159,0.980654,5.0,,,,170.0,21.0,1.0,1.0,1.0,200.0,250.0,14.0,639.0,681.0,19.6,71.9,,,,,,,,,,0.0,0.0,0.0,1.0,0.0,0.0,0.0,0.0,0.0,0.0
396,0.073,0.34,0.64,0.007,0.005,,,,0.0003,,,,431.0,41.0,80.0,3.94516,0.129087,120.0,,,,170.0,21.0,1.0,1.0,1.0,200.0,250.0,14.0,450.0,532.0,28.0,76.0,,,,,,,,,,0.0,0.0,0.0,1.0,0.0,0.0,0.0,0.0,0.0,0.0
402,0.07,0.33,0.64,0.007,0.004,,,,0.0007,,,,413.0,42.0,85.0,0.302882,1.20872,450.0,,,,170.0,21.0,1.0,1.0,1.0,200.0,250.0,14.0,522.0,580.0,25.0,76.0,,,,,,,,,,0.0,0.0,0.0,1.0,0.0,0.0,0.0,0.0,0.0,0.0
408,0.077,0.35,1.02,0.007,0.005,,,,0.0004,,,,399.0,41.0,75.0,1.81666,2.70329,1.3372,,,,170.0,21.0,1.0,1.0,1.0,200.0,250.0,14.0,443.0,522.0,31.1,77.0,,,,,,,,,,0.0,0.0,0.0,1.0,0.0,0.0,0.0,0.0,0.0,0.0
414,0.074,0.34,1.0,0.007,0.006,,,,0.0005,,,,424.0,37.0,86.0,2.77706,4.78739,255.0,,,,170.0,21.0,1.0,1.0,1.0,200.0,250.0,14.0,513.0,594.0,28.0,76.0,,,,,,,,,,0.0,0.0,0.0,1.0,0.0,0.0,0.0,0.0,0.0,0.0
420,0.075,0.34,1.02,0.007,0.006,,,,0.0005,,,,417.0,37.0,79.0,2.25931,4.83831,985.0,,,,170.0,21.0,1.0,1.0,1.0,200.0,250.0,14.0,615.0,655.0,20.2,72.9,,,,,,,,,,0.0,0.0,0.0,1.0,0.0,0.0,0.0,0.0,0.0,0.0
426,0.079,0.33,1.37,0.007,0.006,,,,0.0004,,,,417.0,34.0,97.0,2.33935,4.17697,105.0,,,,170.0,21.0,1.0,1.0,1.0,200.0,250.0,14.0,505.0,586.0,25.8,77.9,,,,,,,,,,0.0,0.0,0.0,1.0,0.0,0.0,0.0,0.0,0.0,0.0
432,0.077,0.34,1.39,0.007,0.007,,,,0.0004,,,,409.0,32.0,99.0,3.63201,4.7076,455.0,,,,170.0,21.0,1.0,1.0,1.0,200.0,250.0,14.0,586.0,641.0,24.2,76.0,,,,,,,,,,0.0,0.0,0.0,1.0,0.0,0.0,0.0,0.0,0.0,0.0
438,0.076,0.29,1.74,0.008,0.006,,,,0.0004,,,,415.0,35.0,92.0,3.93028,2.89086,4.22731,,,,170.0,21.0,1.0,1.0,1.0,200.0,250.0,14.0,500.0,571.0,28.8,77.0,,,,,,,,,,0.0,0.0,0.0,1.0,0.0,0.0,0.0,0.0,0.0,0.0
444,0.078,0.3,1.76,0.007,0.007,,,,0.0004,,,,433.0,32.0,110.0,0.686651,0.493651,230.0,,,,170.0,21.0,1.0,1.0,1.0,200.0,250.0,14.0,575.0,635.0,22.6,74.0,,,,,,,,,,0.0,0.0,0.0,1.0,0.0,0.0,0.0,0.0,0.0,0.0
450,0.079,0.29,1.79,0.006,0.007,,,,0.0004,,,,406.0,33.0,105.0,1.98678,3.66806,895.0,,,,170.0,21.0,1.0,1.0,1.0,200.0,250.0,14.0,654.0,708.0,19.2,70.8,,,,,,,,,,0.0,0.0,0.0,1.0,0.0,0.0,0.0,0.0,0.0,0.0
456,0.062,0.31,1.24,0.008,0.008,,,,,,,,366.0,,110.0,,,,,,,180.0,34.0,0.0,0.0,2.0,200.0,250.0,14.0,468.0,531.0,29.6,81.5,,,,,,,,,,0.0,0.0,0.0,1.0,0.0,0.0,0.0,0.0,0.0,0.0
462,0.051,0.31,1.64,0.005,0.016,,,,,,,,330.0,,60.0,,,,,,,180.0,34.0,1.0,1.0,1.0,200.0,250.0,14.0,497.0,559.0,30.0,77.8,,,,,,,,,,0.0,0.0,0.0,1.0,0.0,0.0,0.0,0.0,0.0,0.0
468,0.043,0.3,0.69,0.006,0.007,,,,,,,,,,,,,,,,,170.0,21.0,1.0,1.0,1.0,200.0,580.0,2.0,,,,,-50.0,53.0,,,,,,,,0.0,0.0,0.0,1.0,0.0,0.0,0.0,0.0,0.0,0.0
474,0.042,0.31,0.98,0.006,0.007,,,,,,,,,,,,,,,,,170.0,21.0,1.0,1.0,1.0,200.0,580.0,2.0,,,,,-60.0,38.0,,,,,,,,0.0,0.0,0.0,1.0,0.0,0.0,0.0,0.0,0.0,0.0
480,0.045,0.31,1.39,0.005,0.007,,,,,,,,,,,,,,,,,170.0,21.0,1.0,1.0,1.0,200.0,580.0,2.0,,,,,-70.0,38.0,,,,,,,,0.0,0.0,0.0,1.0,0.0,0.0,0.0,0.0,0.0,0.0
486,0.045,0.29,1.83,0.005,0.008,,,,,,,,,,,,,,,,,170.0,21.0,1.0,1.0,1.0,200.0,580.0,2.0,444.0,525.0,29.8,79.9,,,,,,,,,,0.0,0.0,0.0,1.0,0.0,0.0,0.0,0.0,0.0,0.0
492,0.045,0.29,1.83,0.005,0.008,,,,,,,,,,,,,,,,,170.0,21.0,1.0,1.0,1.0,200.0,580.0,2.0,,,,,20.0,222.0,,,,,,,,0.0,0.0,0.0,1.0,0.0,0.0,0.0,0.0,0.0,0.0
498,0.058,0.33,0.63,0.007,0.007,,,,,,,,,,,,,,,,,170.0,21.0,1.0,1.0,1.0,200.0,580.0,2.0,,,,,20.0,220.0,,,,,,,,0.0,0.0,0.0,1.0,0.0,0.0,0.0,0.0,0.0,0.0
504,0.065,0.34,0.97,0.007,0.008,,,,,,,,,,,,,,,,,170.0,21.0,1.0,1.0,1.0,200.0,580.0,2.0,,,,,-20.0,201.0,,,,,,,,0.0,0.0,0.0,1.0,0.0,0.0,0.0,0.0,0.0,0.0
510,0.066,0.35,1.36,0.007,0.008,,,,,,,,,,,,,,,,,170.0,21.0,1.0,1.0,1.0,200.0,580.0,2.0,,,,,-40.0,165.0,,,,,,,,0.0,0.0,0.0,1.0,0.0,0.0,0.0,0.0,0.0,0.0
516,0.074,0.36,1.8,0.008,0.008,,,,,,,,,,,,,,,,,170.0,21.0,1.0,1.0,1.0,200.0,580.0,2.0,,,,,-50.0,89.0,,,,,,,,0.0,0.0,0.0,1.0,0.0,0.0,0.0,0.0,0.0,0.0
522,0.089,0.35,0.68,0.008,0.008,,,,,,,,,,,,,,,,,170.0,21.0,1.0,1.0,1.0,200.0,580.0,2.0,,,,,-60.0,27.0,,,,,,,,0.0,0.0,0.0,1.0,0.0,0.0,0.0,0.0,0.0,0.0
528,0.095,0.36,1.05,0.007,0.008,,,,,,,,,,,,,,,,,170.0,21.0,1.0,1.0,1.0,200.0,580.0,2.0,,,,,-70.0,11.0,,,,,,,,0.0,0.0,0.0,1.0,0.0,0.0,0.0,0.0,0.0,0.0
534,0.088,0.34,1.33,0.008,0.007,,,,,,,,,,,,,,,,,170.0,21.0,1.0,1.0,1.0,200.0,580.0,2.0,461.0,568.0,28.6,77.9,,,,,,,,,,0.0,0.0,0.0,1.0,0.0,0.0,0.0,0.0,0.0,0.0
540,0.088,0.34,1.33,0.008,0.007,,,,,,,,,,,,,,,,,170.0,21.0,1.0,1.0,1.0,200.0,580.0,2.0,,,,,20.0,208.0,,,,,,,,0.0,0.0,0.0,1.0,0.0,0.0,0.0,0.0,0.0,0.0
546,0.089,0.33,1.69,0.007,0.008,,,,,,,,,,,,,,,,,170.0,21.0,1.0,1.0,1.0,200.0,580.0,2.0,,,,,-20.0,151.0,,,,,,,,0.0,0.0,0.0,1.0,0.0,0.0,0.0,0.0,0.0,0.0
552,0.151,0.36,0.63,0.008,0.008,,,,,,,,,,,,,,,,,170.0,21.0,1.0,1.0,1.0,200.0,580.0,2.0,,,,,-20.0,131.0,,,,,,,,0.0,0.0,0.0,1.0,0.0,0.0,0.0,0.0,0.0,0.0
558,0.147,0.36,1.02,0.007,0.007,,,,,,,,,,,,,,,,,170.0,21.0,1.0,1.0,1.0,200.0,580.0,2.0,,,,,-40.0,98.0,,,,,,,,0.0,0.0,0.0,1.0,0.0,0.0,0.0,0.0,0.0,0.0
564,0.147,0.35,1.38,0.007,0.007,,,,,,,,,,,,,,,,,170.0,21.0,1.0,1.0,1.0,200.0,580.0,2.0,,,,,-50.0,80.0,,,,,,,,0.0,0.0,0.0,1.0,0.0,0.0,0.0,0.0,0.0,0.0
570,0.145,0.35,1.76,0.006,0.007,,,,,,,,,,,,,,,,,170.0,21.0,1.0,1.0,1.0,200.0,580.0,2.0,,,,,-60.0,32.0,,,,,,,,0.0,0.0,0.0,1.0,0.0,0.0,0.0,0.0,0.0,0.0
576,0.074,0.33,1.45,0.005,0.005,,,,,,,,408.0,6.0,90.0,,,,,,,170.0,21.0,1.0,1.0,1.0,200.0,0.0,0.0,,,,,-60.0,28.0,,,,,,,,0.0,0.0,0.0,0.0,0.0,0.0,0.0,0.0,1.0,0.0
582,0.073,0.34,1.49,0.004,0.007,,,,,,,,396.0,16.0,84.0,,,,,,,170.0,21.0,1.0,1.0,1.0,200.0,0.0,0.0,,,,,,,,,16.0,21.0,82.0,0.0,0.0,0.0,0.0,0.0,0.0,0.0,0.0,0.0,0.0,1.0,0.0
588,0.061,0.33,1.36,0.005,0.006,,,,,,,,419.0,28.0,81.0,,,,,,,170.0,21.0,1.0,1.0,1.0,200.0,0.0,0.0,,,,,-86.0,28.0,,,,,,,,0.0,0.0,0.0,0.0,0.0,0.0,0.0,0.0,1.0,0.0
594,0.07,0.32,1.48,0.005,0.006,,,,,,,,373.0,55.0,75.0,,,,,,,170.0,21.0,1.0,1.0,1.0,200.0,0.0,0.0,,,,,,,,,23.0,12.0,65.0,0.0,0.0,0.0,0.0,0.0,0.0,0.0,0.0,0.0,0.0,1.0,0.0
600,0.068,0.35,1.51,0.006,0.006,,,,,,,,351.0,100.0,87.0,,,,,,,170.0,21.0,1.0,1.0,1.0,200.0,0.0,0.0,,,,,-66.0,28.0,,,,,,,,0.0,0.0,0.0,0.0,0.0,0.0,0.0,0.0,1.0,0.0
606,0.065,0.39,1.53,0.005,0.006,,,,,,,,351.0,140.0,93.0,,,,,,,170.0,21.0,1.0,1.0,1.0,200.0,0.0,0.0,,,,,,,,,21.0,11.0,67.0,0.0,0.0,0.0,0.0,0.0,0.0,0.0,0.0,0.0,0.0,1.0,0.0
612,0.075,0.29,1.75,0.006,0.005,,,,,,,,272.0,255.0,96.0,,,,,,,170.0,21.0,1.0,1.0,1.0,200.0,0.0,0.0,,,,,-80.0,28.0,,,,,,,,0.0,0.0,0.0,0.0,0.0,0.0,0.0,0.0,1.0,0.0
618,0.074,0.35,0.65,0.005,0.004,,,,0.000153241,,,,426.0,36.0,73.0,3.73397,2.56184,1.67621,,,,170.0,21.0,1.0,1.0,1.0,200.0,250.0,14.0,402.0,494.0,33.3,77.5,,,,,,,,,,0.0,0.0,0.0,1.0,0.0,0.0,0.0,0.0,0.0,0.0
624,0.076,0.38,0.67,0.009,0.007,,,,3.47016e-05,,,,362.0,160.0,70.0,0.370037,0.78203,3.74111,,,,170.0,21.0,1.0,1.0,1.0,200.0,250.0,14.0,410.0,494.0,31.4,78.9,,,,,,,,,,0.0,0.0,0.0,1.0,0.0,0.0,0.0,0.0,0.0,0.0
630,0.077,0.3,1.0,0.008,0.007,,,,0.000251694,,,,464.0,7.0,83.0,3.9867,4.15952,2.39507,,,,170.0,21.0,1.0,1.0,1.0,200.0,250.0,14.0,409.0,504.0,30.6,77.0,,,,,,,,,,0.0,0.0,0.0,1.0,0.0,0.0,0.0,0.0,0.0,0.0
636,0.075,0.31,1.03,0.008,0.007,,,,0.000487936,,,,394.0,92.0,79.0,1.4729,3.33617,4.2072,,,,170.0,21.0,1.0,1.0,1.0,200.0,250.0,14.0,427.0,516.0,32.0,78.9,,,,,,,,,,0.0,0.0,0.0,1.0,0.0,0.0,0.0,0.0,0.0,0.0
642,0.078,0.43,1.1,0.007,0.005,,,,0.000307346,,,,329.0,190.0,73.0,0.363369,2.06444,4.78402,,,,170.0,21.0,1.0,1.0,1.0,200.0,250.0,14.0,456.0,545.0,29.0,78.9,,,,,,,,,,0.0,0.0,0.0,1.0,0.0,0.0,0.0,0.0,0.0,0.0
648,0.077,0.32,1.33,0.007,0.005,,,,0.0004095,,,,422.0,36.0,83.0,0.3544,4.00918,4.83373,,,,170.0,21.0,1.0,1.0,1.0,200.0,250.0,14.0,463.0,541.0,27.1,75.9,,,,,,,,,,0.0,0.0,0.0,1.0,0.0,0.0,0.0,0.0,0.0,0.0
654,0.079,0.33,1.35,0.008,0.007,,,,9.69579e-05,,,,375.0,140.0,78.0,2.67976,0.580655,3.66047,,,,170.0,21.0,1.0,1.0,1.0,200.0,250.0,14.0,464.0,544.0,29.4,78.9,,,,,,,,,,0.0,0.0,0.0,1.0,0.0,0.0,0.0,0.0,0.0,0.0
660,0.077,0.28,1.79,0.007,0.006,,,,0.000403822,,,,439.0,7.0,82.0,4.68088,4.44096,2.74342,,,,170.0,21.0,1.0,1.0,1.0,200.0,250.0,14.0,458.0,568.0,28.6,76.0,,,,,,,,,,0.0,0.0,0.0,1.0,0.0,0.0,0.0,0.0,0.0,0.0
666,0.077,0.29,1.76,0.007,0.007,,,,9.4548e-05,,,,396.0,105.0,81.0,0.560371,3.92389,4.35219,,,,170.0,21.0,1.0,1.0,1.0,200.0,250.0,14.0,484.0,577.0,26.2,77.9,,,,,,,,,,0.0,0.0,0.0,1.0,0.0,0.0,0.0,0.0,0.0,0.0
672,0.079,0.37,1.82,0.006,0.007,,,,0.000101,,,,324.0,255.0,81.0,1.4961,2.27633,3.36245,,,,170.0,21.0,1.0,1.0,1.0,200.0,250.0,14.0,536.0,612.0,25.4,76.0,,,,,,,,,,0.0,0.0,0.0,1.0,0.0,0.0,0.0,0.0,0.0,0.0
678,0.074,0.3,1.45,0.007,0.009,,,,,,,,337.0,120.0,84.0,,,,,,,170.0,21.0,1.0,1.0,1.0,200.0,0.0,0.0,480.0,538.0,27.8,79.8,,,,,,,,,,0.0,0.0,0.0,1.0,0.0,0.0,0.0,0.0,0.0,0.0
684,0.069,0.31,1.5,0.008,0.008,,,,,,,,400.0,51.0,160.0,,,,,,,170.0,21.0,1.0,1.0,1.0,200.0,0.0,0.0,522.0,584.0,26.4,78.9,,,,,,,,,,0.0,0.0,0.0,1.0,0.0,0.0,0.0,0.0,0.0,0.0
690,0.069,0.26,1.45,0.01,0.009,,,,,,,,391.0,29.0,226.0,,,,,,,170.0,21.0,1.0,1.0,1.0,200.0,0.0,0.0,492.0,581.0,25.8,77.9,,,,,,,,,,0.0,0.0,0.0,1.0,0.0,0.0,0.0,0.0,0.0,0.0
696,0.035,0.3,0.66,0.006,0.013,,,,,,,,490.0,,70.0,,,,,,,170.0,21.0,1.0,1.0,1.0,150.0,0.0,0.0,392.0,466.0,31.9,80.6,-27.0,100.0,,,,,,,,0.0,0.0,0.0,1.0,0.0,0.0,0.0,0.0,0.0,0.0
702,0.051,0.34,1.82,0.006,0.017,,,,,,,,390.0,,90.0,,,,,,,170.0,21.0,1.0,1.0,1.0,150.0,0.0,0.0,514.0,588.0,28.0,76.8,-43.0,100.0,,,,,,,,0.0,0.0,0.0,1.0,0.0,0.0,0.0,0.0,0.0,0.0
708,0.1,0.34,1.42,0.009,0.028,1.92,0.05,0.35,0.01,0.05,,,345.0,,87.0,,,,,,,170.0,24.0,1.0,1.0,2.1,107.0,0.0,0.0,798.0,858.0,19.6,,-64.0,50.0,,,,,,,,0.0,0.0,0.0,1.0,0.0,0.0,0.0,0.0,0.0,0.0
714,0.04,0.23,0.83,0.01,0.011,2.19,,,,0.45,,,280.0,140.0,,,,,,,,165.0,25.0,1.0,-1.0,1.0,200.0,0.0,0.0,498.0,599.0,24.0,65.0,,,,,,,,,,0.0,0.0,0.0,1.0,0.0,0.0,0.0,0.0,0.0,0.0
720,0.093,0.16,1.03,0.008,0.012,0.98,9.08,0.98,0.19,,0.0,0.0,651.0,,515.0,,,430.0,,,,180.0,34.0,1.0,1.0,1.0,175.0,750.0,8.0,551.0,751.0,19.6,64.5,,,,,,,,,,0.0,0.0,0.0,1.0,0.0,0.0,0.0,0.0,0.0,0.0
726,0.095,0.18,1.04,0.008,0.015,0.0,9.35,1.0,0.19,,0.0,1.03,656.0,,544.0,,,510.0,,,,180.0,34.0,1.0,1.0,1.0,175.0,750.0,8.0,526.0,702.0,19.6,59.3,,,,,,,,,,0.0,0.0,0.0,1.0,0.0,0.0,0.0,0.0,0.0,0.0
732,0.05,0.46,0.96,0.01,0.017,0.03,,0.01,,0.02,,,443.0,,84.0,,,,,,,170.0,21.0,1.0,1.0,1.8,100.0,250.0,16.0,449.0,542.0,,,,,,,,,,,,0.0,0.0,0.0,1.0,0.0,0.0,0.0,0.0,0.0,0.0
738,0.06,0.44,1.6,0.01,0.018,0.03,,0.01,,0.02,,,395.0,,102.0,,,,,,,170.0,21.0,1.0,1.0,1.8,100.0,250.0,16.0,550.0,615.0,,,,,,,,,,,,0.0,0.0,0.0,1.0,0.0,0.0,0.0,0.0,0.0,0.0
744,0.06,0.42,2.0,0.01,0.02,0.02,,0.01,,0.02,,,371.0,,117.0,,,,,,,170.0,21.0,1.0,1.0,1.8,100.0,250.0,16.0,583.0,664.0,,,,,,,,,,,,0.0,0.0,0.0,1.0,0.0,0.0,0.0,0.0,0.0,0.0
750,0.03,0.45,0.78,0.013,0.01,,,,,,,,336.0,140.0,95.0,90.0,,,60.0,10.0,20.0,180.0,23.0,1.0,1.0,1.0,250.0,0.0,0.0,408.0,,,,,,,,,,,,,0.0,0.0,0.0,1.0,0.0,0.0,0.0,0.0,0.0,0.0
756,0.032,0.45,1.27,0.008,0.01,,,,,,,,321.0,130.0,94.0,90.0,,,60.0,10.0,30.0,180.0,23.0,1.0,1.0,1.0,250.0,0.0,0.0,440.0,,,,,,,,,,,,,0.0,0.0,0.0,1.0,0.0,0.0,0.0,0.0,0.0,0.0
762,0.031,0.42,1.71,0.004,0.01,,,,,,,,297.0,110.0,109.0,80.0,,,60.0,10.0,30.0,180.0,23.0,1.0,1.0,1.0,250.0,0.0,0.0,488.0,,,,,,,,,,,,,0.0,0.0,0.0,1.0,0.0,0.0,0.0,0.0,0.0,0.0
768,0.032,0.45,2.05,0.002,0.01,,,,,,,,320.0,120.0,119.0,90.0,,,60.0,10.0,50.0,180.0,23.0,1.0,1.0,1.0,250.0,0.0,0.0,506.0,,,,,,,,,,,,,0.0,0.0,0.0,1.0,0.0,0.0,0.0,0.0,0.0,0.0
774,0.059,0.34,0.77,0.01,0.01,,,,,,,,306.0,110.0,66.0,70.0,,,30.0,10.0,10.0,180.0,23.0,1.0,1.0,1.0,250.0,0.0,0.0,400.0,,,,,,,,,,,,,0.0,0.0,0.0,1.0,0.0,0.0,0.0,0.0,0.0,0.0
780,0.059,0.33,1.09,0.008,0.01,,,,,,,,310.0,100.0,64.0,70.0,,,50.0,10.0,50.0,180.0,23.0,1.0,1.0,1.0,250.0,0.0,0.0,430.0,,,,,,,,,,,,,0.0,0.0,0.0,1.0,0.0,0.0,0.0,0.0,0.0,0.0
786,0.059,0.3,1.44,0.006,0.01,,,,,,,,305.0,90.0,65.0,70.0,,,40.0,10.0,50.0,180.0,23.0,1.0,1.0,1.0,250.0,0.0,0.0,473.0,,,,,,,,,,,,,0.0,0.0,0.0,1.0,0.0,0.0,0.0,0.0,0.0,0.0
792,0.065,0.33,1.83,0.003,0.01,,,,,,,,291.0,90.0,76.0,70.0,,,40.0,10.0,50.0,180.0,23.0,1.0,1.0,1.0,250.0,0.0,0.0,496.0,,,,,,,,,,,,,0.0,0.0,0.0,1.0,0.0,0.0,0.0,0.0,0.0,0.0
798,0.09,0.41,0.78,0.013,0.01,,,,,,,,421.0,140.0,36.0,30.0,,,50.0,40.0,40.0,180.0,23.0,1.0,1.0,1.0,250.0,0.0,0.0,430.0,,,,,,,,,,,,,0.0,0.0,0.0,1.0,0.0,0.0,0.0,0.0,0.0,0.0
804,0.089,0.35,1.18,0.011,0.01,,,,,,,,404.0,120.0,73.0,80.0,,,50.0,30.0,30.0,180.0,23.0,1.0,1.0,1.0,250.0,0.0,0.0,450.0,,,,,,,,,,,,,0.0,0.0,0.0,1.0,0.0,0.0,0.0,0.0,0.0,0.0
810,0.088,0.37,1.59,0.011,0.01,,,,,,,,491.0,120.0,77.0,30.0,,,50.0,50.0,40.0,180.0,23.0,1.0,1.0,1.0,250.0,0.0,0.0,478.0,,,,,,,,,,,,,0.0,0.0,0.0,1.0,0.0,0.0,0.0,0.0,0.0,0.0
816,0.098,0.39,2.25,0.008,0.014,,,,,,,,330.0,130.0,88.0,30.0,,,60.0,50.0,50.0,180.0,23.0,1.0,1.0,1.0,250.0,0.0,0.0,541.0,,,,,,,,,,,,,0.0,0.0,0.0,1.0,0.0,0.0,0.0,0.0,0.0,0.0
822,0.12,0.43,0.86,0.011,0.014,,,,,,,,329.0,150.0,54.0,50.0,,,50.0,30.0,30.0,180.0,23.0,1.0,1.0,1.0,250.0,0.0,0.0,445.0,,,,,,,,,,,,,0.0,0.0,0.0,1.0,0.0,0.0,0.0,0.0,0.0,0.0
828,0.12,0.44,1.35,0.01,0.014,,,,,,,,326.0,150.0,55.0,30.0,,,60.0,50.0,60.0,180.0,23.0,1.0,1.0,1.0,250.0,0.0,0.0,516.0,,,,,,,,,,,,,0.0,0.0,0.0,1.0,0.0,0.0,0.0,0.0,0.0,0.0
834,0.13,0.37,1.83,0.01,0.011,,,,,,,,318.0,130.0,63.0,30.0,,,60.0,50.0,50.0,180.0,23.0,1.0,1.0,1.0,250.0,0.0,0.0,526.0,,,,,,,,,,,,,0.0,0.0,0.0,1.0,0.0,0.0,0.0,0.0,0.0,0.0
840,0.11,0.36,2.18,0.008,0.011,,,,,,,,342.0,120.0,74.0,30.0,,,60.0,70.0,80.0,180.0,23.0,1.0,1.0,1.0,250.0,0.0,0.0,617.0,,,,,,,,,,,,,0.0,0.0,0.0,1.0,0.0,0.0,0.0,0.0,0.0,0.0
846,0.057,0.62,1.22,0.01,0.012,0.05,0.09,,0.011,,,,1100.0,180.0,43.0,70.0,1.0,30.0,,,,280.0,30.0,1.0,1.0,2.8,200.0,200.0,14.0,,538.0,,,,,,,,,,,,1.0,0.0,0.0,0.0,0.0,0.0,0.0,0.0,0.0,0.0
852,0.065,0.59,1.17,0.015,0.011,0.62,0.05,,0.013,,,,781.0,260.0,34.0,30.0,3.0,100.0,,,,280.0,30.0,1.0,1.0,2.8,200.0,200.0,14.0,,582.0,,,,,,,,,,,,1.0,0.0,0.0,0.0,0.0,0.0,0.0,0.0,0.0,0.0
858,0.067,0.51,1.08,0.013,0.011,0.02,0.08,,0.015,,,,412.0,30.0,46.0,40.0,1.0,20.0,,,,280.0,30.0,1.0,1.0,2.8,200.0,200.0,14.0,,533.0,,,,,,,,,,,,1.0,0.0,0.0,0.0,0.0,0.0,0.0,0.0,0.0,0.0
864,0.068,0.35,1.06,0.006,0.009,,0.027,,,,,,416.0,36.0,63.0,,,,,,,170.0,21.0,1.0,1.0,1.0,200.0,580.0,2.0,,,,,-78.0,100.0,,,,,,,,0.0,0.0,0.0,1.0,0.0,0.0,0.0,0.0,0.0,0.0
870,0.075,0.35,1.09,0.006,0.008,,1.22,,,,,,424.0,52.0,87.0,,,,,,,170.0,21.0,1.0,1.0,1.0,200.0,580.0,2.0,,,,,-60.0,100.0,,,,,,,,0.0,0.0,0.0,1.0,0.0,0.0,0.0,0.0,0.0,0.0
876,0.077,0.35,1.05,0.006,0.008,,2.28,,,,,,424.0,37.0,88.0,,,,,,,170.0,21.0,1.0,1.0,1.0,200.0,580.0,2.0,,,,,-25.0,100.0,,,,,,,,0.0,0.0,0.0,1.0,0.0,0.0,0.0,0.0,0.0,0.0
882,0.05,0.27,0.77,0.005,0.01,0.73,0.49,0.24,,1.04,,,210.0,70.0,80.0,170.0,25.0,310.0,,,,665.0,34.0,1.0,1.0,5.3,200.0,0.0,0.0,538.0,,,,,,226.0,-60.0,,,,,,0.0,0.0,0.0,0.0,0.0,0.0,1.0,0.0,0.0,0.0
888,0.05,0.36,0.82,0.007,0.011,1.44,0.55,0.29,,0.92,,,190.0,50.0,80.0,190.0,14.0,320.0,,,,660.0,34.0,1.0,1.0,3.3,200.0,0.0,0.0,636.0,,,,,,239.0,7.0,,,,,,0.0,0.0,0.0,0.0,0.0,0.0,1.0,0.0,0.0,0.0
894,0.05,0.4,1.12,0.006,0.014,1.9,0.51,0.37,,0.55,,,210.0,60.0,70.0,140.0,11.0,200.0,,,,660.0,34.0,1.0,1.0,5.3,200.0,0.0,0.0,543.0,,,,,,229.0,-64.0,,,,,,0.0,0.0,0.0,0.0,0.0,0.0,1.0,0.0,0.0,0.0
900,0.08,0.62,1.85,0.013,0.017,0.45,0.05,0.01,0.01,0.81,,,152.0,220.0,52.0,240.0,10.0,,,,,700.0,32.0,1.0,1.0,4.8,200.0,0.0,0.0,504.0,743.0,27.0,46.0,18.0,35.0,,,,,,,,0.0,0.0,0.0,0.0,0.0,0.0,1.0,0.0,0.0,0.0
906,0.08,0.68,1.94,0.013,0.015,1.54,0.05,0.01,0.01,0.85,,,132.0,290.0,55.0,270.0,44.0,,,,,700.0,32.0,1.0,1.0,4.8,200.0,0.0,0.0,546.0,869.0,21.0,28.0,55.0,35.0,,,,,,,,0.0,0.0,0.0,0.0,0.0,0.0,1.0,0.0,0.0,0.0
912,0.09,0.42,0.93,0.011,0.058,0.0,0.0,0.02,0.004,0.08,,,,140.0,160.0,40.0,,120.0,1000.0,,140.0,,,1.0,1.0,2.5,250.0,600.0,2.1,420.9,541.5,24.5,74.5,,,180.0,,,,,,,0.0,0.0,0.0,1.0,0.0,0.0,0.0,0.0,0.0,0.0
918,0.07,0.21,0.75,0.011,0.011,0.0,0.0,0.0,0.0,0.0,,,,0.0,190.0,69.0,,0.0,0.0,,0.0,,,1.0,1.0,2.6,250.0,600.0,2.1,369.8,486.6,,76.0,,,174.0,,,,,,,0.0,0.0,0.0,1.0,0.0,0.0,0.0,0.0,0.0,0.0
924,0.06,0.53,1.15,0.013,0.015,0.0,0.02,0.0,0.0,0.0,,,,0.0,100.0,57.0,,0.0,0.0,,80.0,,,1.0,1.0,1.8,150.0,600.0,2.1,,,,,,,,,,,,,,0.0,0.0,0.0,1.0,0.0,0.0,0.0,0.0,0.0,0.0
930,0.08,0.49,0.9,0.014,0.029,0.0,0.05,0.0,0.0,0.0,,,,50.0,170.0,108.0,,0.0,0.0,,0.0,,,1.0,1.0,1.9,150.0,600.0,2.1,,,,,,,,,,,,,,0.0,0.0,0.0,1.0,0.0,0.0,0.0,0.0,0.0,0.0
936,0.09,0.28,1.52,0.015,0.045,0.0,0.0,0.5,0.005,0.1,,,,80.0,110.0,125.0,,50.0,0.0,,70.0,,,1.0,1.0,2.4,200.0,600.0,2.1,562.1,640.6,27.5,66.5,,,225.0,,,,,,,0.0,0.0,0.0,0.0,0.0,0.0,1.0,0.0,0.0,0.0
942,0.08,0.21,1.2,0.014,0.022,0.0,0.0,0.0,0.0,0.0,,,,0.0,100.0,128.0,,60.0,0.0,,120.0,,,1.0,1.0,1.7,200.0,600.0,1.7,455.2,569.0,35.0,74.0,,,197.0,,,,,,,0.0,0.0,0.0,0.0,0.0,0.0,1.0,0.0,0.0,0.0
948,0.064,0.27,1.44,0.021,0.024,,,0.02,0.009,0.28,,,590.0,,102.0,,,,,,,625.0,75.36,1.0,1.0,4.6,200.0,0.0,0.0,,,,,-20.0,61.0,,,,,,,,0.0,0.0,0.0,0.0,0.0,0.0,0.0,0.0,0.0,1.0
954,0.073,0.33,1.44,0.021,0.018,,,0.02,0.009,0.22,,,563.0,,124.0,,,,,,,625.0,75.36,1.0,1.0,4.6,200.0,0.0,0.0,,,,,0.0,111.0,,,,,,,,0.0,0.0,0.0,0.0,0.0,0.0,0.0,0.0,0.0,1.0
960,0.08,0.31,1.67,0.017,0.017,,,0.03,0.01,0.25,,,502.0,,82.0,,,,,,,625.0,75.36,1.0,1.0,4.6,200.0,0.0,0.0,391.0,522.0,30.0,64.0,,,,,,,,,,0.0,0.0,0.0,0.0,0.0,0.0,0.0,0.0,0.0,1.0
966,0.086,0.28,1.68,0.023,0.02,,,0.01,0.01,0.23,,,487.0,,77.0,,,,,,,625.0,75.36,1.0,1.0,4.6,200.0,0.0,0.0,,,,,-60.0,38.0,,,,,,,,0.0,0.0,0.0,0.0,0.0,0.0,0.0,0.0,0.0,1.0
972,0.089,0.42,2.22,0.022,0.025,,,0.02,0.01,0.06,,,466.0,,82.0,,,,,,,625.0,75.36,1.0,1.0,4.6,200.0,0.0,0.0,,,,,-40.0,21.0,,,,,,,,0.0,0.0,0.0,0.0,0.0,0.0,0.0,0.0,0.0,1.0
978,0.08,0.24,1.34,0.023,0.02,,,0.43,0.01,0.15,,,575.0,,86.0,,,,,,,625.0,75.36,1.0,1.0,4.6,200.0,0.0,0.0,,,,,-20.0,67.0,,,,,,,,0.0,0.0,0.0,0.0,0.0,0.0,0.0,0.0,0.0,1.0
984,0.095,0.45,1.88,0.02,0.022,,,0.44,0.01,0.26,,,425.0,,84.0,,,,,,,625.0,75.36,1.0,1.0,4.6,200.0,0.0,0.0,,,,,0.0,41.0,,,,,,,,0.0,0.0,0.0,0.0,0.0,0.0,0.0,0.0,0.0,1.0
990,0.082,0.18,0.75,0.014,0.02,,,0.02,0.005,0.22,,,381.0,,109.0,,,,,,,625.0,72.24,1.0,1.0,4.4,200.0,0.0,0.0,349.0,456.0,36.0,72.0,,,,,,,,,,0.0,0.0,0.0,0.0,0.0,0.0,0.0,0.0,0.0,1.0
996,0.07,0.16,1.17,0.013,0.02,,,0.02,0.01,0.26,,,368.0,,108.0,,,,,,,625.0,72.24,1.0,1.0,4.4,200.0,0.0,0.0,,,,,-60.0,110.0,,,,,,,,0.0,0.0,0.0,0.0,0.0,0.0,0.0,0.0,0.0,1.0
1002,0.11,0.16,1.09,0.012,0.018,,,0.03,0.01,0.24,,,353.0,,78.0,,,,,,,625.0,72.24,1.0,1.0,4.4,200.0,0.0,0.0,,,,,-60.0,22.0,,,,,,,,0.0,0.0,0.0,0.0,0.0,0.0,0.0,0.0,0.0,1.0
1008,0.098,0.18,1.29,0.017,0.017,,,0.01,0.01,0.21,,,337.0,,61.0,,,,,,,625.0,72.24,1.0,1.0,4.4,200.0,0.0,0.0,,,,,-20.0,128.0,,,,,,,,0.0,0.0,0.0,0.0,0.0,0.0,0.0,0.0,0.0,1.0
1014,0.1,0.24,1.91,0.016,0.016,,,0.02,0.01,0.05,,,228.0,,74.0,,,,,,,625.0,72.24,1.0,1.0,4.4,200.0,0.0,0.0,,,,,0.0,122.0,,,,,,,,0.0,0.0,0.0,0.0,0.0,0.0,0.0,0.0,0.0,1.0
1020,0.12,0.27,1.46,0.014,0.026,,,0.48,0.01,0.3,,,365.0,,77.0,,,,,,,625.0,72.24,1.0,1.0,4.4,200.0,0.0,0.0,689.0,689.0,34.0,69.0,,,,,,,,,,0.0,0.0,0.0,0.0,0.0,0.0,0.0,0.0,0.0,1.0
1026,0.1,0.28,1.42,0.011,0.024,0.09,0.08,0.04,0.01,0.15,,,430.0,45.2226,150.0,150.0,4.61762,300.0,200.0,200.0,200.0,550.0,28.0,1.0,1.0,3.6,100.0,0.0,0.0,493.0,618.0,18.0,75.0,-6.0,70.0,,-10.0,,,,,,0.0,0.0,0.0,0.0,0.0,0.0,1.0,0.0,0.0,0.0
1032,0.09,0.15,1.18,0.012,0.018,0.13,0.08,0.03,0.01,0.14,,,621.0,29.9086,131.0,1.59421,5.54108,200.0,100.0,23.9221,63.7323,550.0,28.0,1.0,1.0,3.6,100.0,0.0,0.0,427.0,518.0,18.0,75.0,30.0,70.0,,15.0,,,,,,0.0,0.0,0.0,0.0,0.0,0.0,1.0,0.0,0.0,0.0
1038,0.046,0.31,0.96,0.008,0.012,,,,,,,,,,,,,,,,,,,1.0,1.0,0.6,200.0,250.0,14.0,479.0,527.0,27.8,77.0,,,,,,,,,,0.0,0.0,0.0,1.0,0.0,0.0,0.0,0.0,0.0,0.0
1044,0.037,0.29,0.6,0.006,0.009,,,,,,,,,,,,,,,,,,,1.0,1.0,1.0,200.0,250.0,14.0,401.0,466.0,32.0,81.5,,,,,,,,,,0.0,0.0,0.0,1.0,0.0,0.0,0.0,0.0,0.0,0.0
1050,0.051,0.32,1.8,0.006,0.012,,,,,,,,,,,,,,,,,,,1.0,1.0,1.0,200.0,250.0,14.0,507.0,587.0,29.2,76.9,,,,,,,,,,0.0,0.0,0.0,1.0,0.0,0.0,0.0,0.0,0.0,0.0
1056,0.042,0.28,1.37,0.007,0.012,,,,,,,,,,,,,,,,,,,1.0,1.0,2.2,200.0,250.0,14.0,438.0,518.0,29.8,82.3,,,,,,,,,,0.0,0.0,0.0,1.0,0.0,0.0,0.0,0.0,0.0,0.0
1062,0.042,0.2,0.93,0.008,0.011,,,,,,,,,,,,,,,,,,,1.0,1.0,4.3,200.0,250.0,14.0,376.0,484.0,32.6,78.8,,,,,,,,,,0.0,0.0,0.0,1.0,0.0,0.0,0.0,0.0,0.0,0.0
1068,0.125,0.26,1.34,0.012,0.013,0.07,0.05,0.003,0.005,,,,253.0,5.0,89.0,,,180.0,,,,850.0,35.0,1.0,1.0,7.9,300.0,0.0,0.0,505.0,589.0,,71.0,,,,,,,,,,0.0,0.0,0.0,0.0,0.0,0.0,1.0,0.0,0.0,0.0
1074,0.115,0.25,1.35,0.012,0.01,0.08,0.02,0.009,0.003,,,,260.0,,94.0,,,170.0,,,,850.0,35.0,1.0,1.0,7.9,300.0,0.0,0.0,465.0,587.0,,69.0,,,,,,,,,,0.0,0.0,0.0,0.0,0.0,0.0,1.0,0.0,0.0,0.0
1080,0.12,0.25,1.26,0.01,0.013,0.06,0.03,0.145,0.002,,,,262.0,110.0,119.0,,20.0,160.0,,,,850.0,35.0,1.0,1.0,7.9,300.0,0.0,0.0,529.0,612.0,,61.0,,,,,,,,,,0.0,0.0,0.0,0.0,0.0,0.0,1.0,0.0,0.0,0.0
1086,0.046,0.31,1.39,0.008,0.015,,,,,,,,,,,,,,,,,170.0,21.0,1.0,1.0,1.0,20.0,0.0,0.0,542.0,597.0,26.6,75.0,-39.0,100.0,,,,,,,,0.0,0.0,0.0,1.0,0.0,0.0,0.0,0.0,0.0,0.0
1092,0.037,0.28,0.6,0.008,0.01,,,,,,,,,,,,,,,,,170.0,21.0,1.0,1.0,1.0,240.0,0.0,0.0,390.0,465.0,34.8,80.6,-31.0,100.0,,,,,,,,0.0,0.0,0.0,1.0,0.0,0.0,0.0,0.0,0.0,0.0
1098,0.047,0.27,1.32,0.007,0.012,,,,,,,,,,,,,,,,,170.0,21.0,1.0,1.0,1.0,300.0,0.0,0.0,431.0,513.0,33.4,78.8,-53.0,100.0,,,,,,,,0.0,0.0,0.0,1.0,0.0,0.0,0.0,0.0,0.0,0.0
1104,0.15,0.3,1.57,0.026,0.028,0.07,0.059,0.11,0.122,0.093,,,,60.0,,170.0,,60.0,60.0,,,650.0,33.0,1.0,1.0,3.3,300.0,0.0,0.0,661.0,,20.0,68.0,,,,,,,,,,0.0,0.0,0.0,0.0,0.0,0.0,1.0,0.0,0.0,0.0
1110,0.12,0.34,1.67,0.024,0.03,0.053,0.06,0.005,0.115,0.06,,,,60.0,,160.0,,50.0,50.0,,,850.0,38.0,1.0,1.0,7.6,300.0,0.0,0.0,521.0,,30.0,60.0,,,,,,,,,,0.0,0.0,0.0,0.0,0.0,0.0,1.0,0.0,0.0,0.0
1116,0.11,0.28,1.39,0.009,0.017,0.065,0.069,0.008,0.032,0.12,,,,50.0,,180.0,,50.0,10.0,,,650.0,33.0,1.0,1.0,3.3,300.0,0.0,0.0,525.0,,31.0,62.0,,,,,,,,,,0.0,0.0,0.0,0.0,0.0,0.0,1.0,0.0,0.0,0.0
1122,0.1,0.41,1.83,0.009,0.014,0.095,0.078,0.3,0.041,0.16,,,,70.0,,190.0,,50.0,11.0,,,650.0,33.0,1.0,1.0,3.3,300.0,0.0,0.0,610.0,,35.0,68.0,,,,,,,,,,0.0,0.0,0.0,0.0,0.0,0.0,1.0,0.0,0.0,0.0
1128,0.08,0.28,1.39,0.011,0.015,0.028,0.03,0.17,0.049,0.044,,,340.0,50.0,54.0,120.0,,150.0,,,,650.0,33.0,1.0,1.0,3.3,300.0,0.0,0.0,562.0,694.0,22.0,55.0,,,,,,,,,,0.0,0.0,0.0,0.0,0.0,0.0,1.0,0.0,0.0,0.0
1134,0.12,0.26,1.4,0.012,0.014,0.057,0.05,0.009,0.056,0.106,,,420.0,50.0,138.0,140.0,,50.0,,,,650.0,33.0,1.0,1.0,3.3,300.0,0.0,0.0,522.0,689.0,28.0,60.0,,,,,,,,,,0.0,0.0,0.0,0.0,0.0,0.0,1.0,0.0,0.0,0.0
1140,0.1,0.35,1.54,0.009,0.016,0.06,0.049,0.18,0.057,0.11,,,420.0,50.0,138.0,160.0,,50.0,,,,650.0,33.0,1.0,1.0,3.3,300.0,0.0,0.0,556.0,704.0,25.0,58.0,,,,,,,,,,0.0,0.0,0.0,0.0,0.0,0.0,1.0,0.0,0.0,0.0
1146,0.12,0.33,1.47,0.014,0.014,0.06,0.05,0.39,0.055,0.11,,,400.0,50.0,136.0,150.0,,50.0,,,,650.0,33.0,1.0,1.0,3.3,300.0,0.0,0.0,574.0,744.0,24.0,55.0,,,,,,,,,,0.0,0.0,0.0,0.0,0.0,0.0,1.0,0.0,0.0,0.0
1152,0.11,0.38,1.55,0.029,,,,0.0,0.09,,,,,0.0,,,,0.0,,,,650.0,33.0,1.0,1.0,3.3,300.0,600.0,0.75,631.0,689.0,,,,,,,,,,,,0.0,0.0,0.0,0.0,0.0,0.0,1.0,0.0,0.0,0.0
1158,0.11,0.33,1.41,0.019,0.023,0.065,0.082,0.016,,0.19,,,,,,240.0,,180.0,,,,450.0,30.0,1.0,1.0,1.9,300.0,0.0,0.0,420.0,560.0,25.0,,,,,,,,,,,0.0,0.0,0.0,0.0,0.0,0.0,1.0,0.0,0.0,0.0
1164,0.12,0.29,1.5,0.008,0.017,0.085,0.075,0.3,,0.19,,,,,,190.0,,100.0,,,,650.0,33.0,1.0,1.0,3.3,300.0,0.0,0.0,544.0,717.0,21.0,60.0,,,,,,,,,,0.0,0.0,0.0,0.0,0.0,0.0,1.0,0.0,0.0,0.0
1170,0.09,0.37,1.03,0.004,0.01,0.05,8.8,1.03,0.25,0.01,0.01,,470.0,39.2166,370.0,72.3135,,800.0,,,,180.0,23.0,1.0,1.0,1.3,,720.0,2.0,,,,,,,,,,,,,,0.0,0.0,0.0,1.0,0.0,0.0,0.0,0.0,0.0,0.0
1176,0.06,0.34,1.08,0.007,0.014,0.69,9.0,1.03,0.29,0.02,0.01,,480.0,28.4912,110.0,66.3993,,15.1203,,,,116.0,23.0,1.0,1.0,1.3,,0.0,0.0,,,,,,,,,0.431371,,,,,0.0,0.0,0.0,1.0,0.0,0.0,0.0,0.0,0.0,0.0
1182,0.06,0.34,1.08,0.007,0.014,0.69,9.0,1.03,0.29,0.02,0.01,,480.0,32.4153,110.0,47.0672,,97.6386,,,,116.0,23.0,1.0,1.0,1.3,,760.0,8.0,,,,,,,,,,,,,,0.0,0.0,0.0,1.0,0.0,0.0,0.0,0.0,0.0,0.0
1188,0.07,0.23,1.0,0.002,0.006,0.58,8.3,0.93,0.24,0.00470921,0.00918123,,460.0,71.8812,250.0,26.7091,,340.0,,,,116.0,23.0,1.0,1.0,1.3,,760.0,2.0,,,,,,,,,,,,,,0.0,0.0,0.0,1.0,0.0,0.0,0.0,0.0,0.0,0.0
1194,0.11,0.51,1.1,0.007,0.013,0.08,8.9,1.0,0.18,0.03,0.000326615,,500.0,63.4916,400.0,73.0772,,900.0,,,,115.0,23.0,1.0,1.0,1.0,,740.0,8.0,,,,,,,,,,,,,,0.0,0.0,0.0,1.0,0.0,0.0,0.0,0.0,0.0,0.0
1200,0.06,0.32,1.23,0.000926486,0.002,1.01,8.4,0.89,0.22,0.00922,0.00527839,,380.0,53.0271,80.0,49.0536,,300.0,,,,163.0,25.0,1.0,1.0,1.2,,740.0,2.0,,,,,,,,,,,,,,0.0,0.0,0.0,1.0,0.0,0.0,0.0,0.0,0.0,0.0
1206,0.1,0.43,0.96,0.003,0.006,0.17,8.6,0.97,0.22,0.02,0.005,,360.0,0.00932355,430.0,0.00176944,,200.0,,,,145.0,20.0,1.0,1.0,1.0,200.0,750.0,2.0,,,,,20.0,23.0,,,,,,,,0.0,0.0,0.0,1.0,0.0,0.0,0.0,0.0,0.0,0.0
1212,0.1,0.42,0.96,0.003,0.006,0.17,8.8,1.01,0.21,0.02,0.005,,400.0,0.00638879,430.0,0.00759611,,900.0,,,,143.0,21.0,1.0,1.0,1.1,200.0,760.0,8.0,,,,,,,,,,,,,,0.0,0.0,0.0,1.0,0.0,0.0,0.0,0.0,0.0,0.0
1218,0.1,0.42,0.91,0.004,0.008,0.17,8.9,0.98,0.21,0.03,0.01,,390.0,0.00912803,410.0,0.007311,,900.0,,,,146.0,22.0,1.0,1.0,1.1,200.0,760.0,8.0,,,,,20.0,44.0,,,,,,,,0.0,0.0,0.0,1.0,0.0,0.0,0.0,0.0,0.0,0.0
1224,0.09,0.34,0.48,0.004,0.011,0.08,8.6,0.98,0.22,0.05,0.02,0.0581237,,20.0,260.0,0.005,5.50417,,30.0,50.0,,390.0,11.5,1.0,1.0,1.9,177.0,746.0,4.0,647.0,747.0,20.0,68.0,,,,,,,,,,0.0,0.0,1.0,0.0,0.0,0.0,0.0,0.0,0.0,0.0
1230,0.12,0.24,0.53,0.001,0.01,0.13,8.61,1.03,0.2,0.09,0.016,0.0550345,,20.0,430.0,0.013,0.0307719,,30.0,50.0,,285.0,28.5,1.0,1.0,1.3,177.0,746.0,4.0,654.0,767.0,20.0,62.0,,,,,,,,,,0.0,1.0,0.0,0.0,0.0,0.0,0.0,0.0,0.0,0.0
1236,0.1,0.22,0.55,0.009,0.013,0.21,2.68,1.05,,,,,260.0,,,200.0,,,,,,500.0,32.0,1.0,1.0,2.0,250.0,690.0,10.0,,,,,-40.0,72.0,,,,,,,,0.0,0.0,0.0,0.0,0.0,1.0,0.0,0.0,0.0,0.0
1242,0.06,0.49,0.67,0.011,0.009,0.21,2.63,1.06,,,,,850.0,,,150.0,,,,,,500.0,32.0,1.0,1.0,2.0,250.0,690.0,10.0,,,,,-40.0,15.0,,,,,,,,0.0,0.0,0.0,0.0,0.0,1.0,0.0,0.0,0.0,0.0
1248,0.1,0.19,0.53,0.007,0.007,0.2,2.7,1.03,,,,,220.0,,,150.0,,,,,,500.0,32.0,1.0,1.0,2.0,250.0,690.0,10.0,,,,,-60.0,53.0,,,,,,,,0.0,0.0,0.0,0.0,0.0,1.0,0.0,0.0,0.0,0.0
1254,0.09,0.24,0.68,0.013,0.006,0.2,2.22,1.03,,,,,520.0,,,100.0,,,,,,500.0,30.0,1.0,1.0,3.6,200.0,690.0,10.0,,,,,-60.0,36.0,,,,,,,,0.0,0.0,0.0,0.0,1.0,0.0,0.0,0.0,0.0,0.0
1260,0.11,0.14,0.73,0.002,0.005,,2.3,1.03,0.27,,,,254.0,,26.0,,,200.0,,,,500.0,29.0,0.0,0.0,2.9,200.0,690.0,8.0,,,,,-20.0,18.0,,,,,,,,0.0,0.0,0.0,0.0,0.0,0.0,1.0,0.0,0.0,0.0
1266,0.12,0.14,1.03,0.002,0.006,,2.3,1.03,0.27,,,,166.0,,22.0,,,200.0,,,,500.0,29.0,0.0,0.0,2.9,200.0,690.0,8.0,,,,,-20.0,96.0,,,,,,,,0.0,0.0,0.0,0.0,0.0,0.0,1.0,0.0,0.0,0.0
1272,0.14,0.18,0.75,0.002,0.005,,2.3,1.01,0.27,,,,256.0,,21.0,,,200.0,,,,500.0,29.0,0.0,0.0,2.9,200.0,690.0,8.0,,,,,-40.0,37.0,,,,,,,,0.0,0.0,0.0,0.0,0.0,0.0,1.0,0.0,0.0,0.0
1278,0.12,0.13,1.29,0.002,0.009,,2.26,0.99,0.3,,,,344.0,,35.0,,,200.0,,,,500.0,29.0,0.0,0.0,2.9,200.0,690.0,24.0,,,21.8,70.7,,,,,,,,,,0.0,0.0,0.0,0.0,0.0,0.0,1.0,0.0,0.0,0.0
1284,0.12,0.13,1.18,0.002,0.007,,2.26,1.0,0.31,,,,286.0,,312.0,,,200.0,,,,500.0,29.0,0.0,0.0,2.9,200.0,690.0,24.0,,,21.7,67.0,,,,,,,,,,0.0,0.0,0.0,0.0,0.0,0.0,1.0,0.0,0.0,0.0
1290,0.084,0.415,1.24,0.011,0.015,0.05,0.037,0.385,,0.105,,,480.0,,86.0,,,,60.0,150.0,5.0,,,1.0,1.0,2.4,100.0,550.0,1.83,,,,,,,,-51.0,,,,,,0.0,0.0,0.0,0.0,0.0,0.0,1.0,0.0,0.0,0.0
1296,0.084,0.3,0.54,0.005,0.008,0.036,2.2,1.05,,0.035,,,660.0,,66.0,,,,40.0,70.0,4.0,,,1.0,1.0,2.4,175.0,690.0,2.33,,,,,,,,-34.0,,,,,,0.0,0.0,0.0,0.0,0.0,0.0,1.0,0.0,0.0,0.0
1302,0.06,0.2,1.15,0.007,0.017,0.16,0.052,0.45,,0.128,,,350.0,,97.0,,,,140.0,160.0,15.0,,,1.0,1.0,2.4,125.0,605.0,1.92,,,,,,,,-35.0,,,,,,0.0,0.0,0.0,0.0,0.0,0.0,1.0,0.0,0.0,0.0
1308,0.07,0.08,0.98,0.01,0.01,0.27,2.07,1.07,0.015,,,,891.0,,97.0,,,,0.009,0.01,0.008,300.0,28.0,1.0,1.0,2.04,150.0,690.0,10.0,,,,,-80.0,9.0,,,,,,,,1.0,0.0,0.0,0.0,0.0,0.0,0.0,0.0,0.0,0.0
1314,0.07,0.08,0.98,0.01,0.01,0.27,2.07,1.07,0.015,,,,891.0,,97.0,,,,0.009,0.01,0.008,300.0,28.0,1.0,1.0,2.04,150.0,690.0,10.0,,,,,0.0,117.0,,,,,,,,1.0,0.0,0.0,0.0,0.0,0.0,0.0,0.0,0.0,0.0
1320,0.048,0.13,1.06,0.014,0.016,0.23,2.02,1.3,0.02,,,,768.0,,266.0,,,,0.008,0.03,0.008,300.0,28.0,1.0,1.0,1.96,150.0,690.0,10.0,,,,,-70.0,6.0,,,,,,,,1.0,0.0,0.0,0.0,0.0,0.0,0.0,0.0,0.0,0.0
1326,0.048,0.13,1.06,0.014,0.016,0.23,2.02,1.3,0.02,,,,768.0,,266.0,,,,0.008,0.03,0.008,300.0,28.0,1.0,1.0,1.96,150.0,690.0,10.0,,,,,40.0,160.0,,,,,,,,1.0,0.0,0.0,0.0,0.0,0.0,0.0,0.0,0.0,0.0
1332,0.043,0.12,0.86,0.011,0.017,0.2,2.01,0.93,0.02,,,,922.0,,123.0,,,,0.008,0.008,0.008,300.0,20.0,1.0,1.0,2.08,150.0,690.0,10.0,,,,,0.0,12.0,,,,,,,,1.0,0.0,0.0,0.0,0.0,0.0,0.0,0.0,0.0,0.0
1338,0.042,0.14,1.33,0.012,0.015,0.26,2.39,1.21,0.015,,,,735.0,,236.0,,,,0.008,0.016,0.008,300.0,28.0,1.0,1.0,1.96,150.0,690.0,10.0,,,,,-70.0,6.0,,,,,,,,1.0,0.0,0.0,0.0,0.0,0.0,0.0,0.0,0.0,0.0
1344,0.042,0.14,1.33,0.012,0.015,0.26,2.39,1.21,0.015,,,,735.0,,236.0,,,,0.008,0.016,0.008,300.0,28.0,1.0,1.0,1.96,150.0,690.0,10.0,,,,,40.0,135.0,,,,,,,,1.0,0.0,0.0,0.0,0.0,0.0,0.0,0.0,0.0,0.0
1350,0.047,0.42,1.0,0.015,0.016,0.17,2.29,1.04,0.018,,,,695.0,,165.0,,,,0.008,0.034,0.008,300.0,28.0,1.0,1.0,2.08,150.0,690.0,10.0,,,,,-20.0,22.0,,,,,,,,1.0,0.0,0.0,0.0,0.0,0.0,0.0,0.0,0.0,0.0
1356,0.074,0.27,1.11,0.009,0.024,0.17,2.3,0.96,0.018,,,,556.0,,113.0,,,,0.008,0.032,0.008,290.0,29.0,1.0,1.0,2.0,150.0,690.0,10.0,595.0,675.0,24.0,69.0,,,,,,,,,,1.0,0.0,0.0,0.0,0.0,0.0,0.0,0.0,0.0,0.0
1362,0.074,0.27,1.11,0.009,0.024,0.17,2.3,0.96,0.018,,,,556.0,,113.0,,,,0.008,0.032,0.008,290.0,29.0,1.0,1.0,2.0,150.0,690.0,10.0,,,,,20.0,52.0,,,,,,,,1.0,0.0,0.0,0.0,0.0,0.0,0.0,0.0,0.0,0.0
1368,0.062,0.24,1.24,0.14,0.25,0.22,2.17,0.98,0.18,,,,408.0,,269.0,,,,0.008,0.31,0.008,290.0,29.0,1.0,1.0,2.0,150.0,690.0,10.0,,,,,-70.0,6.0,,,,,,,,1.0,0.0,0.0,0.0,0.0,0.0,0.0,0.0,0.0,0.0
1374,0.062,0.24,1.24,0.14,0.25,0.22,2.17,0.98,0.18,,,,408.0,,269.0,,,,0.008,0.31,0.008,290.0,29.0,1.0,1.0,2.0,150.0,690.0,10.0,,,,,40.0,68.0,,,,,,,,1.0,0.0,0.0,0.0,0.0,0.0,0.0,0.0,0.0,0.0
1380,0.055,0.37,0.82,0.021,0.008,0.086,2.5,0.99,0.000775366,0.51,,,694.0,50.0,160.0,130.0,,,50.0,50.0,9.0,,,1.0,1.0,3.6,177.0,704.0,4.5,457.0,569.0,25.8,67.0,,,,,,,,,,0.0,0.0,0.0,0.0,0.0,0.0,0.0,0.0,0.0,1.0
1386,0.067,0.13,0.94,0.017,0.026,,2.9,1.4,,,,,550.0,,,,,,,,,150.0,37.5,1.0,1.0,1.0,300.0,690.0,3.0,546.0,658.0,18.0,65.0,,,222.0,,,,,,,0.0,0.0,0.0,1.0,0.0,0.0,0.0,0.0,0.0,0.0
1392,0.061,0.32,0.27,0.022,0.016,,2.2,1.2,,,,,690.0,,,,,,,,,150.0,37.5,1.0,1.0,1.0,300.0,690.0,3.0,537.0,648.0,22.0,65.0,,,220.0,,,,,,,0.0,0.0,0.0,1.0,0.0,0.0,0.0,0.0,0.0,0.0
1398,0.05,0.18,0.63,0.015,0.018,,2.0,,,,,,750.0,,,,,,,,,150.0,37.5,1.0,1.0,1.0,300.0,690.0,3.0,543.0,649.0,20.0,71.0,,,217.0,,,,,,,0.0,0.0,0.0,1.0,0.0,0.0,0.0,0.0,0.0,0.0
1404,0.09,0.2,1.25,0.011,0.022,,2.4,0.9,,,,,690.0,,,,,,,,,150.0,37.5,1.0,1.0,1.0,300.0,690.0,3.0,594.0,680.0,20.0,66.0,,,231.0,,,,,,,0.0,0.0,0.0,1.0,0.0,0.0,0.0,0.0,0.0,0.0
1410,0.09,0.3,1.25,0.02,0.016,,2.0,1.1,,,,,,,,,,,,,,150.0,37.5,1.0,1.0,1.0,300.0,690.0,3.0,,,,,,,240.0,,,,,,,0.0,0.0,0.0,1.0,0.0,0.0,0.0,0.0,0.0,0.0
1416,0.08,0.25,0.8,0.01,0.01,0.03,2.3,1.05,0.00986156,0.02,,,,,,,,,0.002,0.003,0.001,525.0,30.0,1.0,1.0,1.75,210.0,700.0,20.0,,,,,20.0,231.0,,,,,,,,0.0,0.0,0.0,0.0,0.0,0.0,1.0,0.0,0.0,0.0
1422,0.08,0.25,0.8,0.01,0.01,0.03,2.3,1.05,0.00990773,0.02,,,,,,,,,0.002,0.003,0.001,525.0,30.0,1.0,1.0,1.75,210.0,700.0,20.0,,,,,-30.0,171.0,,,,,,,,0.0,0.0,0.0,0.0,0.0,0.0,1.0,0.0,0.0,0.0
1428,0.08,0.25,0.8,0.01,0.01,0.03,2.3,1.05,0.000452018,0.02,,,,,,,,,0.002,0.003,0.001,525.0,30.0,1.0,1.0,1.75,210.0,700.0,20.0,,,,,20.0,221.0,,,,,,,,0.0,0.0,0.0,0.0,0.0,0.0,1.0,0.0,0.0,0.0
1434,0.08,0.25,0.8,0.01,0.01,0.03,2.3,1.05,0.00524836,0.02,,,,,,,,,0.002,0.003,0.001,525.0,30.0,1.0,1.0,1.75,210.0,700.0,20.0,,,,,-30.0,170.0,,,,,,,,0.0,0.0,0.0,0.0,0.0,0.0,1.0,0.0,0.0,0.0
1440,0.093,0.32,0.86,0.01,0.018,0.0,0.0,0.0,0.0,0.0,0.0,0.0,236.0,,54.0,180.0,,0.0,,,,550.0,30.0,,1.0,2.475,250.0,200.0,1.0,388.0,482.0,31.8,75.0,,,,,,,,,,0.0,0.0,0.0,0.0,0.0,0.0,1.0,0.0,0.0,0.0
1446,0.088,0.35,1.38,0.004,0.022,0.0,0.0,0.0,0.0,0.0,0.0,0.0,268.0,,109.0,200.0,,0.0,,,,450.0,30.0,,1.0,2.025,250.0,200.0,1.0,458.0,567.0,29.6,74.0,,,,,,,,,,0.0,0.0,0.0,0.0,0.0,0.0,1.0,0.0,0.0,0.0
1452,0.09,0.33,1.19,0.007,0.015,0.0,0.0,0.0,0.0,0.0,0.0,0.0,234.0,,78.0,200.0,,0.0,,,,900.0,33.0,,1.0,4.8,100.0,200.0,1.0,413.0,540.0,28.6,69.0,,,,,,,,,,0.0,0.0,0.0,0.0,0.0,0.0,1.0,0.0,0.0,0.0
1458,0.08,0.36,1.02,0.014,0.014,0.0,0.0,0.0,0.0,0.0,0.0,0.0,513.0,,51.0,230.0,,0.0,,,,650.0,30.0,,1.0,2.925,250.0,200.0,1.0,378.0,477.0,31.0,75.0,,,,,,,,,,0.0,0.0,0.0,0.0,0.0,0.0,1.0,0.0,0.0,0.0
1464,0.061,0.53,1.01,0.009,0.01,0.0,0.0,0.0,0.0,0.0,0.0,0.0,307.0,,79.0,10.0,,0.0,,,,190.0,23.0,,1.0,1.0925,250.0,200.0,1.0,449.0,525.0,30.6,78.0,,,,,,,,,,0.0,0.0,0.0,1.0,0.0,0.0,0.0,0.0,0.0,0.0
1470,0.068,0.9,1.2,0.016,0.024,0.0,0.0,0.0,0.0,0.0,0.0,0.0,789.0,,27.0,270.0,,0.0,,,,450.0,30.0,,1.0,2.025,250.0,200.0,1.0,490.0,581.0,28.0,70.0,,,,,,,,,,0.0,0.0,0.0,0.0,0.0,0.0,1.0,0.0,0.0,0.0
1476,0.07,1.14,1.45,0.015,0.027,0.0,0.0,0.0,0.0,0.0,0.0,0.0,699.0,,37.0,230.0,,0.0,,,,450.0,30.0,,1.0,2.025,250.0,200.0,1.0,530.0,633.0,26.6,65.0,,,,,,,,,,0.0,0.0,0.0,0.0,0.0,0.0,1.0,0.0,0.0,0.0
1482,0.072,1.08,1.71,0.015,0.028,0.0,0.0,0.0,0.0,0.0,0.0,0.0,609.0,,65.0,320.0,,0.0,,,,450.0,30.0,,1.0,2.025,250.0,200.0,1.0,584.0,686.0,21.0,47.0,,,,,,,,,,0.0,0.0,0.0,0.0,0.0,0.0,1.0,0.0,0.0,0.0
1488,0.073,0.34,0.64,0.008,0.007,0.0,0.0,0.0,0.00013859,0.0,,,450.0,7.0,63.0,1.24901,1.63334,3.82593,,,,,,,,1.0,200.0,250.0,14.0,,,,,-46.0,100.0,,,,,,,,0.0,0.0,0.0,1.0,0.0,0.0,0.0,0.0,0.0,0.0
1494,0.065,0.26,0.61,0.007,0.007,2.14,0.0,0.0,0.000294007,0.0,,,488.0,5.0,86.0,0.661714,1.57047,4.93081,,,,,,,,1.0,200.0,250.0,14.0,,,,,-65.0,100.0,,,,,,,,0.0,0.0,0.0,1.0,0.0,0.0,0.0,0.0,0.0,0.0
1500,0.07,0.31,0.66,0.006,0.008,0.0,0.0,0.24,0.000237548,0.0,,,430.0,5.0,79.0,0.191278,0.687525,2.16945,,,,,,,,1.0,200.0,250.0,14.0,,,,,-61.0,100.0,,,,,,,,0.0,0.0,0.0,1.0,0.0,0.0,0.0,0.0,0.0,0.0
1506,0.075,0.3,0.63,0.008,0.008,0.0,0.0,1.03,1.90497e-05,0.0,,,438.0,5.0,80.0,4.10537,2.40931,2.65884,,,,,,,,1.0,200.0,250.0,14.0,,,,,7.0,100.0,,,,,,,,0.0,0.0,0.0,1.0,0.0,0.0,0.0,0.0,0.0,0.0
1512,0.074,0.25,0.58,0.008,0.01,0.0,1.59,0.0,0.0002168,0.0,,,500.0,4.0,89.0,3.08763,3.96839,2.86251,,,,,,,,1.0,200.0,250.0,14.0,,,,,-22.0,100.0,,,,,,,,0.0,0.0,0.0,1.0,0.0,0.0,0.0,0.0,0.0,0.0
1518,0.068,0.28,0.62,0.008,0.007,0.0,0.0,0.0,0.000476379,0.5,,,477.0,5.0,73.0,4.16831,4.29553,1.90562,,,,,,,,1.0,200.0,250.0,14.0,,,,,-63.0,100.0,,,,,,,,0.0,0.0,0.0,1.0,0.0,0.0,0.0,0.0,0.0,0.0
1524,0.064,0.32,0.64,0.007,0.008,0.0,0.0,0.0,0.000382993,1.6,,,498.0,4.0,60.0,4.41751,4.78872,1.05849,,,,,,,,1.0,200.0,250.0,14.0,,,,,-24.0,100.0,,,,,,,,0.0,0.0,0.0,1.0,0.0,0.0,0.0,0.0,0.0,0.0
1530,0.063,0.31,0.65,0.006,0.009,0.88,0.0,0.0,4.15695e-05,0.0,,,472.0,38.0,85.0,4.94874,2.51922,2.0193,,,,,,,,1.0,200.0,250.0,14.0,,,,,-63.0,100.0,,,,,,,,0.0,0.0,0.0,1.0,0.0,0.0,0.0,0.0,0.0,0.0
1536,0.067,0.3,0.65,0.007,0.007,3.03,0.0,0.0,0.000185681,0.0,,,460.0,36.0,72.0,0.200332,1.93722,1.99398,,,,,,,,1.0,200.0,250.0,14.0,,,,,-85.0,100.0,,,,,,,,0.0,0.0,0.0,1.0,0.0,0.0,0.0,0.0,0.0,0.0
1542,0.073,0.34,0.66,0.007,0.007,0.0,0.0,0.5,0.000446545,0.0,,,433.0,42.0,70.0,4.47133,1.71608,0.718342,,,,,,,,1.0,200.0,250.0,14.0,,,,,-48.0,100.0,,,,,,,,0.0,0.0,0.0,1.0,0.0,0.0,0.0,0.0,0.0,0.0
1548,0.077,0.32,0.66,0.008,0.01,0.0,1.03,0.0,0.000338557,0.0,,,457.0,34.0,75.0,0.684828,3.97451,0.368039,,,,,,,,1.0,200.0,250.0,14.0,,,,,-35.0,100.0,,,,,,,,0.0,0.0,0.0,1.0,0.0,0.0,0.0,0.0,0.0,0.0
1554,0.078,0.28,0.64,0.008,0.007,0.0,2.15,0.0,0.000312229,0.0,,,482.0,42.0,95.0,4.50818,2.72362,2.103,,,,,,,,1.0,200.0,250.0,14.0,,,,,8.0,100.0,,,,,,,,0.0,0.0,0.0,1.0,0.0,0.0,0.0,0.0,0.0,0.0
1560,0.064,0.3,0.63,0.007,0.007,0.0,0.0,0.0,0.000473554,1.05,,,456.0,42.0,65.0,1.22001,0.053807,4.23912,,,,,,,,1.0,200.0,250.0,14.0,,,,,-58.0,100.0,,,,,,,,0.0,0.0,0.0,1.0,0.0,0.0,0.0,0.0,0.0,0.0
1566,0.078,0.26,1.43,0.006,0.006,0.0,0.0,0.0,0.000399453,0.0,,,481.0,5.0,86.0,4.88844,3.12135,3.11153,,,,,,,,1.0,200.0,250.0,14.0,,,,,-18.0,100.0,,,,,,,,0.0,0.0,0.0,1.0,0.0,0.0,0.0,0.0,0.0,0.0
1572,0.071,0.26,1.48,0.007,0.012,2.28,0.0,0.0,0.000434143,0.0,,,460.0,5.0,87.0,1.29982,3.95125,4.50521,,,,,,,,1.0,200.0,250.0,14.0,,,,,-20.0,100.0,,,,,,,,0.0,0.0,0.0,1.0,0.0,0.0,0.0,0.0,0.0,0.0
1578,0.076,0.28,1.53,0.008,0.006,0.0,0.0,0.25,0.000286924,0.0,,,444.0,5.0,84.0,4.59222,2.33065,3.15418,,,,,,,,1.0,200.0,250.0,14.0,,,,,-24.0,100.0,,,,,,,,0.0,0.0,0.0,1.0,0.0,0.0,0.0,0.0,0.0,0.0
1584,0.076,0.24,1.41,0.008,0.006,0.0,0.0,1.11,0.000105878,0.0,,,447.0,5.0,85.0,1.18498,0.97112,2.2578,,,,,,,,1.0,200.0,250.0,14.0,,,,,26.0,100.0,,,,,,,,0.0,0.0,0.0,1.0,0.0,0.0,0.0,0.0,0.0,0.0
1590,0.075,0.28,1.48,0.007,0.005,0.0,1.55,0.0,8.45993e-05,0.0,,,466.0,5.0,86.0,1.27886,2.84934,3.07987,,,,,,,,1.0,200.0,250.0,14.0,,,,,6.0,100.0,,,,,,,,0.0,0.0,0.0,1.0,0.0,0.0,0.0,0.0,0.0,0.0
1596,0.08,0.24,1.47,0.007,0.007,0.0,0.0,0.0,0.000333451,0.55,,,455.0,5.0,96.0,1.07524,3.081,1.83605,,,,,,,,1.0,200.0,250.0,14.0,,,,,-10.0,100.0,,,,,,,,0.0,0.0,0.0,1.0,0.0,0.0,0.0,0.0,0.0,0.0
1602,0.074,0.22,1.36,0.008,0.01,0.0,0.0,0.0,0.000464564,1.63,,,484.0,5.0,110.0,2.61732,4.93292,0.589241,,,,,,,,1.0,200.0,250.0,14.0,,,,,23.0,100.0,,,,,,,,0.0,0.0,0.0,1.0,0.0,0.0,0.0,0.0,0.0,0.0
1608,0.076,0.25,1.48,0.008,0.006,0.95,0.0,0.0,0.000178404,0.0,,,417.0,33.0,81.0,1.42,3.8847,3.87843,,,,,,,,1.0,200.0,250.0,14.0,,,,,-62.0,100.0,,,,,,,,0.0,0.0,0.0,1.0,0.0,0.0,0.0,0.0,0.0,0.0
1614,0.075,0.26,1.46,0.008,0.006,3.15,0.0,0.0,0.000284369,0.0,,,418.0,32.0,72.0,1.25503,0.0433096,0.101866,,,,,,,,1.0,200.0,250.0,14.0,,,,,-49.0,100.0,,,,,,,,0.0,0.0,0.0,1.0,0.0,0.0,0.0,0.0,0.0,0.0
1620,0.075,0.26,1.46,0.008,0.007,0.0,0.0,0.5,3.77032,0.0,,,429.0,31.0,86.0,4.20113,1.88015,1.79071,,,,,,,,1.0,200.0,250.0,14.0,,,,,-56.0,100.0,,,,,,,,0.0,0.0,0.0,1.0,0.0,0.0,0.0,0.0,0.0,0.0
1626,0.079,0.3,1.56,0.007,0.011,0.0,1.03,0.0,0.000128858,0.0,,,431.0,27.0,98.0,0.714675,0.625317,3.37106,,,,,,,,1.0,200.0,250.0,14.0,,,,,-58.0,100.0,,,,,,,,0.0,0.0,0.0,1.0,0.0,0.0,0.0,0.0,0.0,0.0
1632,0.078,0.29,1.48,0.007,0.01,0.0,1.96,0.0,0.000280314,0.0,,,438.0,28.0,82.0,2.5253,4.37225,3.30083,,,,,,,,1.0,200.0,250.0,14.0,,,,,-6.0,100.0,,,,,,,,0.0,0.0,0.0,1.0,0.0,0.0,0.0,0.0,0.0,0.0
1638,0.077,0.25,1.43,0.007,0.008,0.0,0.0,0.0,8.66731e-05,1.08,,,456.0,19.0,92.0,1.84182,3.45596,2.61268,,,,,,,,1.0,200.0,250.0,14.0,,,,,-48.0,100.0,,,,,,,,0.0,0.0,0.0,1.0,0.0,0.0,0.0,0.0,0.0,0.0
1644,0.088,0.38,0.55,0.008,0.017,0.52,8.6,0.98,0.19,,,,363.0,,376.0,,,500.0,,,,450.0,30.0,,1.0,2.0,200.0,760.0,2.0,830.0,,,,,,,,,,,,,0.0,0.0,0.0,0.0,0.0,0.0,1.0,0.0,0.0,0.0
1650,0.092,0.35,0.9,0.008,0.016,0.54,8.4,0.97,0.17,,,,426.0,,99.0,,,500.0,,,,450.0,30.0,,1.0,2.0,200.0,760.0,2.0,832.0,,,,,,,,,,,,,0.0,0.0,0.0,0.0,0.0,0.0,1.0,0.0,0.0,0.0
1651,0.18,0.39,0.88,0.008,0.017,0.18,10.2,0.94,0.28,,,,327.0,,103.0,,,34.3916,,,,450.0,30.0,,1.0,2.0,200.0,760.0,2.0,,,,,,,,,,,,,,0.0,0.0,0.0,0.0,0.0,0.0,1.0,0.0,0.0,0.0