File: table_with_imputations.csv
Manganese concentration / (weight%),Chromium concentration / (weight%),Current / A,Vanadium concentration / (weight%),Voltage / V,weld_MMA,Post weld heat treatment temperature / Â°C,Niobium concentration / parts per million by weight,AC or DC,weld_SA,Nitrogen concentration / parts per million by weight,Electrode positive or negative,Phosphorus concentration / (weight%),Carbon concentration / (weight%),Sulphur concentration / (weight%),Yield strength / MPa,Heat input / kJmm-1,Molybdenum concentration / (weight%)
0.65,2.97274,170.0,0.036598,21.0,1,250.0,257.219,1,0,197.265,1.0,0.012,0.037,0.008,392.0,1.0,0.369546
1.03,2.42354,170.0,-0.00805389,21.0,1,0.0,632.676,1,0,88.2661,1.0,0.014,0.037,0.007,,1.0,-0.289498
1.43,0.709472,170.0,0.072169,21.0,1,580.0,-510.253,1,0,76.9637,1.0,0.014,0.044,0.007,436.0,1.0,-0.0369247
0.66,-2.10903,170.0,-0.111775,21.0,1,250.0,-161.225,1,0,126.345,1.0,0.011,0.039,0.006,411.0,1.0,0.183077
1.01,4.02,170.0,0.0212156,21.0,1,580.0,295.231,1,0,266.82,1.0,0.011,0.041,0.006,426.0,1.0,0.765622
1.85,1.2295,170.0,0.0316771,21.0,1,0.0,297.694,1,0,193.131,1.0,0.014,0.049,0.006,,1.0,-0.0657732
0.63,2.09073,170.0,0.00927961,21.0,1,580.0,87.8808,1,0,109.128,1.0,0.012,0.038,0.007,411.0,1.0,0.96391
1.37,-3.31493,170.0,-0.0698536,21.0,1,250.0,-166.739,1,0,46.9755,1.0,0.013,0.049,0.007,498.0,1.0,0.0655343
1.83,4.30046,170.0,-0.0042587,21.0,1,0.0,292.204,1,0,205.638,1.0,0.012,0.053,0.007,,1.0,-0.143211
0.62,5.17012,170.0,0.102305,21.0,1,580.0,640.516,1,0,166.071,1.0,0.01,0.041,0.007,431.0,1.0,1.36465
1.41,-2.42796,170.0,-0.0050903,21.0,1,250.0,-274.088,1,0,143.559,1.0,0.014,0.049,0.007,567.0,1.0,0.0859389
1.81,2.18761,170.0,-0.0465808,21.0,1,0.0,450.315,1,0,132.373,1.0,0.015,0.046,0.007,,1.0,0.217795
0.65,3.40394,170.0,-0.0756605,21.0,1,580.0,493.924,1,0,289.287,1.0,0.011,0.037,0.009,482.0,1.0,0.773818
1.4,2.05814,170.0,0.0101329,21.0,1,250.0,294.477,1,0,96.4737,1.0,0.013,0.048,0.007,621.0,1.0,0.22176
1.79,2.36224,170.0,-0.0245678,21.0,1,0.0,170.063,1,0,85.1109,1.0,0.013,0.051,0.007,,1.0,-0.162478
1.48,4.46778,170.0,0.0754893,21.0,1,0.0,287.97,1,0,209.196,1.0,0.006,0.075,0.007,502.0,1.0,-0.00922249
1.48,-1.3774,170.0,-0.0276626,21.0,1,0.0,182.727,1,0,25.7842,1.0,0.006,0.076,0.007,504.0,1.0,-0.0712949
1.49,3.22164,170.0,0.0769659,21.0,1,0.0,18.1652,1,0,38.3479,1.0,0.006,0.076,0.006,568.0,1.0,-0.299343
1.49,-0.159634,170.0,0.0500606,21.0,1,0.0,246.856,1,0,72.0,1.0,0.013,0.074,0.006,,1.0,0.00127712
1.43,-1.72824,170.0,-0.119321,21.0,1,0.0,-82.4696,1,0,54.0,1.0,0.013,0.081,0.006,,1.0,-0.173273
1.36,1.87622,170.0,0.113073,21.0,1,0.0,36.0941,1,0,57.0,1.0,0.011,0.076,0.005,,1.0,0.137435
1.37,1.55097,170.0,-0.040382,21.0,1,0.0,279.9,1,0,47.0,1.0,0.011,0.079,0.005,,1.0,-0.407981
1.4,0.939457,170.0,0.117472,21.0,1,0.0,83.5294,1,0,44.0,1.0,0.011,0.078,0.004,,1.0,0.182614
1.42,1.05973,170.0,0.00985627,21.0,1,0.0,43.0688,1,0,46.0,1.0,0.006,0.081,0.004,,1.0,-0.108801
1.36,0.475334,170.0,0.0372236,21.0,1,0.0,37.7955,1,0,68.0,1.0,0.009,0.069,0.007,,1.0,-0.227668
1.41,-2.11961,170.0,0.00984321,21.0,1,0.0,-216.83,1,0,55.0,1.0,0.009,0.08,0.006,,1.0,-0.27412
1.36,-0.240827,170.0,0.0520046,21.0,1,0.0,403.433,1,0,53.0,1.0,0.009,0.076,0.005,,1.0,0.329134
1.31,-0.234467,170.0,-0.0183645,21.0,1,0.0,-179.176,1,0,50.0,1.0,0.008,0.078,0.005,,1.0,-0.382338
1.3,-0.0476135,170.0,-0.000933538,21.0,1,0.0,234.932,1,0,48.0,1.0,0.008,0.076,0.005,,1.0,0.104352
1.32,0.221179,170.0,-0.0345183,21.0,1,0.0,-30.652,1,0,52.0,1.0,0.008,0.079,0.004,,1.0,0.047795
1.5,0.767323,170.0,-0.0653439,21.0,1,0.0,4.31828,1,0,89.0,1.0,0.006,0.074,0.006,,1.0,-0.134507
1.36,1.31355,170.0,0.00640487,21.0,1,250.0,118.815,1,0,52.0,1.0,0.009,0.071,0.005,481.0,1.0,-0.15658
1.36,-2.04379,170.0,-0.160775,21.0,1,0.0,165.248,1,0,44.0,1.0,0.008,0.069,0.005,,1.0,-0.253503
1.39,0.452392,170.0,-0.0696323,21.0,1,0.0,217.858,1,0,41.0,1.0,0.008,0.069,0.004,,1.0,-0.12247
1.54,1.99595,170.0,-0.0212367,21.0,1,250.0,337.221,1,0,80.0,1.0,0.008,0.081,0.007,502.0,1.0,0.484922
1.32,-2.21132,170.0,-0.143101,21.0,1,250.0,-105.33,1,0,68.0,1.0,0.008,0.072,0.006,452.0,1.0,0.254
1.33,3.12914,170.0,0.0879902,21.0,1,250.0,38.8763,1,0,57.0,1.0,0.008,0.072,0.006,467.0,1.0,0.484158
1.36,-0.367903,170.0,-0.0489412,21.0,1,250.0,-163.107,1,0,49.0,1.0,0.005,0.074,0.005,514.0,1.0,-0.0684125
1.41,-1.76817,170.0,0.0306672,21.0,1,250.0,130.586,1,0,49.0,1.0,0.009,0.066,0.004,522.0,1.0,0.218089
1.33,0.84982,170.0,0.0689496,21.0,1,250.0,31.6409,1,0,49.0,1.0,0.008,0.066,0.004,522.0,1.0,0.0500496
1.49,-0.507184,170.0,-0.0173331,21.0,1,250.0,211.271,1,0,77.0,1.0,0.005,0.069,0.004,535.0,1.0,-0.00558998
1.44,0.417151,170.0,-0.0127042,21.0,1,250.0,-331.22,1,0,94.0,1.0,0.005,0.071,0.007,522.0,1.0,0.192177
1.39,2.12092,170.0,0.0431771,21.0,1,250.0,268.693,1,0,65.0,1.0,0.005,0.071,0.007,531.0,1.0,0.393222
1.44,-1.22141,170.0,0.0292116,21.0,1,250.0,-311.725,1,0,67.0,1.0,0.005,0.071,0.005,538.0,1.0,-0.293718
1.41,-1.18613,170.0,-0.0242267,21.0,1,250.0,94.4602,1,0,58.0,1.0,0.005,0.069,0.005,561.0,1.0,0.331853
1.4,0.177439,170.0,0.00538469,21.0,1,250.0,-73.4043,1,0,60.0,1.0,0.005,0.067,0.005,547.0,1.0,0.420757
0.98,8.9,180.0,0.22,34.0,1,750.0,520.0,1,0,460.0,1.0,0.012,0.09,0.008,542.0,1.0,1.0
1.03,9.1,180.0,0.23,34.0,1,750.0,530.0,1,0,460.0,1.0,0.013,0.088,0.007,574.0,1.0,1.01
1.04,9.02,180.0,0.24,34.0,1,750.0,620.0,1,0,480.0,1.0,0.013,0.091,0.007,642.0,1.0,1.01
1.05,9.0,180.0,0.23,34.0,1,750.0,700.0,1,0,460.0,1.0,0.013,0.089,0.007,643.0,1.0,1.04
1.0,8.99,180.0,0.21,34.0,1,750.0,520.0,1,0,160.0,1.0,0.012,0.094,0.008,558.0,1.0,1.03
1.01,8.9,180.0,0.21,34.0,1,750.0,510.0,1,0,160.0,1.0,0.012,0.086,0.007,569.0,1.0,1.01
1.04,8.98,180.0,0.22,34.0,1,750.0,560.0,1,0,160.0,1.0,0.013,0.086,0.008,609.0,1.0,1.01
1.06,9.08,180.0,0.23,34.0,1,750.0,560.0,1,0,155.0,1.0,0.013,0.088,0.007,620.0,1.0,1.0
0.65,0.0,170.0,-0.071305,21.0,1,250.0,-79.246,1,0,106.626,1.0,0.012,0.037,0.008,392.0,1.0,0.694921
1.03,0.0,170.0,0.100692,21.0,1,580.0,-148.666,1,0,177.772,1.0,0.014,0.037,0.007,402.0,1.0,0.827455
1.43,0.0,170.0,0.0635825,21.0,1,0.0,122.627,1,0,241.449,1.0,0.014,0.044,0.007,,1.0,-0.163379
0.65,0.22,170.0,-0.00160283,21.0,1,250.0,112.581,1,0,230.336,1.0,0.014,0.038,0.007,422.0,1.0,0.361985
1.01,0.24,170.0,-0.109736,21.0,1,0.0,-70.0675,1,0,-23.8278,1.0,0.013,0.041,0.008,,1.0,-0.0619915
1.85,0.26,170.0,0.0188328,21.0,1,580.0,195.916,1,0,187.101,1.0,0.013,0.048,0.007,535.0,1.0,0.547687
0.6,0.51,170.0,-0.0526368,21.0,1,0.0,222.187,1,0,79.9108,1.0,0.01,0.04,0.006,,1.0,0.243393
1.42,0.53,170.0,-0.0298164,21.0,1,250.0,-124.777,1,0,-15.4438,1.0,0.01,0.047,0.006,543.0,1.0,0.695879
1.83,0.52,170.0,-0.11005,21.0,1,580.0,313.104,1,0,84.0593,1.0,0.013,0.051,0.006,570.0,1.0,-0.0833509
0.59,1.0,170.0,0.022336,21.0,1,0.0,228.296,1,0,163.467,1.0,0.011,0.041,0.009,,1.0,0.370606
1.37,1.08,170.0,0.0527879,21.0,1,250.0,-31.0729,1,0,123.961,1.0,0.013,0.048,0.008,626.0,1.0,0.514864
1.81,1.1,170.0,-0.0449351,21.0,1,580.0,399.678,1,0,215.51,1.0,0.013,0.052,0.007,592.0,1.0,0.587025
0.59,2.34,170.0,-0.0583536,21.0,1,0.0,318.121,1,0,146.783,1.0,0.011,0.041,0.009,,1.0,0.279904
1.29,2.32,170.0,0.0275939,21.0,1,250.0,311.787,1,0,224.325,1.0,0.011,0.05,0.008,738.0,1.0,-0.0452086
1.72,2.36,170.0,0.0313377,21.0,1,580.0,247.451,1,0,118.198,1.0,0.014,0.054,0.007,697.0,1.0,0.567992
1.36,1.99499,170.0,-0.0867072,21.0,1,0.0,138.563,1,0,9.73711,1.0,0.009,0.069,0.007,,1.0,-0.461756
1.36,1.03371,170.0,0.0380745,21.0,1,580.0,271.144,1,0,203.33,1.0,0.009,0.069,0.007,,1.0,0.392187
1.39,4.1205,170.0,0.167409,21.0,1,580.0,151.243,1,0,297.13,1.0,0.008,0.073,0.007,387.0,1.0,0.810501
1.39,2.93942,170.0,-0.0355224,21.0,1,0.0,323.384,1,0,88.1131,1.0,0.009,0.078,0.007,,1.0,0.0741694
1.41,1.86358,170.0,0.0976122,21.0,1,250.0,26.8792,1,0,183.333,1.0,0.009,0.08,0.006,478.0,1.0,0.342646
1.41,0.695808,170.0,0.0352708,21.0,1,580.0,-11.4154,1,0,7.15627,1.0,0.009,0.08,0.006,391.0,1.0,0.621865
1.42,1.05763,170.0,-0.0336802,21.0,1,0.0,580.247,1,0,179.066,1.0,0.009,0.08,0.006,,1.0,0.306443
1.42,4.93487,170.0,0.171633,21.0,1,580.0,212.954,1,0,265.451,1.0,0.009,0.08,0.006,,1.0,0.456195
1.36,-2.21754,170.0,-0.0888354,21.0,1,0.0,-184.499,1,0,30.9833,1.0,0.009,0.076,0.005,,1.0,-0.11331
1.31,1.40916,170.0,-0.0128874,21.0,1,250.0,339.591,1,0,88.4804,1.0,0.008,0.078,0.005,491.0,1.0,0.105035
1.31,4.90835,170.0,0.208966,21.0,1,580.0,187.884,1,0,144.939,1.0,0.008,0.078,0.005,409.0,1.0,0.287303
1.3,0.783513,170.0,-0.0833439,21.0,1,0.0,-13.5503,1,0,167.325,1.0,0.008,0.076,0.005,,1.0,-0.147669
1.3,3.60433,170.0,0.159239,21.0,1,580.0,667.364,1,0,198.664,1.0,0.008,0.076,0.005,,1.0,0.843298
1.32,3.48402,170.0,0.0771625,21.0,1,0.0,73.935,1,0,83.5184,1.0,0.008,0.079,0.004,,1.0,-0.364997
1.32,0.443156,170.0,-0.00455885,21.0,1,580.0,182.975,1,0,166.2,1.0,0.008,0.079,0.004,,1.0,0.63058
0.63,-0.13819,170.0,0.021,21.0,1,250.0,5.0,1,0,78.0,1.0,0.006,0.071,0.007,436.0,1.0,0.129747
0.64,1.7763,170.0,0.0435,21.0,1,0.0,5.0,1,0,88.0,1.0,0.006,0.071,0.008,,1.0,0.0590717
0.63,-0.127268,170.0,0.06,21.0,1,580.0,5.0,1,0,75.0,1.0,0.005,0.074,0.008,458.0,1.0,1.0843
1.02,-0.145131,170.0,0.0004,21.0,1,250.0,5.0,1,0,75.0,1.0,0.005,0.077,0.007,443.0,1.0,-0.0112945
1.01,2.52703,170.0,0.0215,21.0,1,0.0,5.0,1,0,75.0,1.0,0.007,0.076,0.007,,1.0,0.268984
1.04,1.9105,170.0,0.044,21.0,1,580.0,5.0,1,0,48.0,1.0,0.006,0.078,0.007,478.0,1.0,0.190548
1.05,0.257137,170.0,0.085,21.0,1,250.0,5.0,1,0,72.0,1.0,0.006,0.077,0.008,538.0,1.0,0.0527263
1.33,-1.25335,170.0,0.0004,21.0,1,0.0,6.0,1,0,80.0,1.0,0.005,0.077,0.007,,1.0,0.317903
1.22,1.73764,170.0,0.019,21.0,1,580.0,5.0,1,0,85.0,1.0,0.006,0.072,0.008,455.0,1.0,0.648734
1.35,0.331191,170.0,0.0595,21.0,1,250.0,5.0,1,0,76.0,1.0,0.007,0.078,0.007,521.0,1.0,0.609786
1.36,-1.07249,170.0,0.1005,21.0,1,0.0,5.0,1,0,83.0,1.0,0.006,0.076,0.007,,1.0,-0.0585802
1.74,2.77233,170.0,0.0004,21.0,1,580.0,6.0,1,0,92.0,1.0,0.006,0.076,0.008,414.0,1.0,0.154805
1.72,0.224181,170.0,0.041,21.0,1,250.0,5.0,1,0,74.0,1.0,0.008,0.077,0.007,578.0,1.0,0.245419
1.72,-0.797522,170.0,0.0605,21.0,1,0.0,5.0,1,0,86.0,1.0,0.008,0.076,0.005,,1.0,-0.0233009
1.74,2.2932,170.0,0.083,21.0,1,580.0,5.0,1,0,90.0,1.0,0.008,0.08,0.007,570.0,1.0,0.546828
0.64,-1.07512,170.0,0.0003,21.0,1,250.0,120.0,1,0,80.0,1.0,0.005,0.073,0.007,450.0,1.0,-0.0946659
0.62,0.225003,170.0,0.0003,21.0,1,0.0,220.0,1,0,85.0,1.0,0.005,0.075,0.007,,1.0,0.32339
0.64,2.10515,170.0,0.0007,21.0,1,580.0,450.0,1,0,85.0,1.0,0.004,0.07,0.007,484.0,1.0,0.393185
1.02,-1.6459,170.0,0.0004,21.0,1,250.0,171.503,1,0,75.0,1.0,0.005,0.077,0.007,443.0,1.0,0.150765
1.02,0.758976,170.0,0.0004,21.0,1,0.0,120.0,1,0,83.0,1.0,0.005,0.078,0.007,,1.0,0.334838
1.0,1.84049,170.0,0.0005,21.0,1,580.0,255.0,1,0,86.0,1.0,0.006,0.074,0.007,492.0,1.0,0.67791
1.02,4.11399,170.0,0.0005,21.0,1,250.0,985.0,1,0,79.0,1.0,0.006,0.075,0.007,615.0,1.0,0.789713
1.33,0.775778,170.0,0.0004,21.0,1,0.0,6.0,1,0,80.0,1.0,0.005,0.077,0.007,,1.0,-0.0252814
1.37,0.828965,170.0,0.0004,21.0,1,580.0,105.0,1,0,97.0,1.0,0.006,0.079,0.007,500.0,1.0,0.513783
1.39,1.96078,170.0,0.0004,21.0,1,250.0,455.0,1,0,99.0,1.0,0.007,0.077,0.007,586.0,1.0,0.258867
1.36,3.11682,170.0,0.0005,21.0,1,0.0,940.0,1,0,91.0,1.0,0.007,0.076,0.006,,1.0,0.470395
1.74,1.20385,170.0,0.0004,21.0,1,580.0,16.334,1,0,92.0,1.0,0.006,0.076,0.008,414.0,1.0,0.444566
1.76,2.04387,170.0,0.0004,21.0,1,250.0,230.0,1,0,110.0,1.0,0.007,0.078,0.007,575.0,1.0,-0.0604241
1.77,2.38372,170.0,0.0004,21.0,1,0.0,450.0,1,0,97.0,1.0,0.009,0.077,0.008,,1.0,0.228874
1.79,4.15044,170.0,0.0004,21.0,1,580.0,895.0,1,0,105.0,1.0,0.007,0.079,0.006,638.0,1.0,0.361335
1.24,1.4803,180.0,0.0507783,34.0,1,250.0,290.79,0,0,110.0,0.0,0.008,0.062,0.008,468.0,2.0,0.405533
1.3,-3.15009,180.0,-0.174444,34.0,1,250.0,-186.624,1,0,70.0,1.0,0.007,0.048,0.007,465.0,1.0,0.141485
1.56,1.23121,180.0,-0.0959418,34.0,1,250.0,355.04,1,0,90.0,1.0,0.01,0.068,0.006,494.0,1.0,0.00597611
0.69,3.66627,170.0,0.0767816,21.0,1,580.0,-21.7201,1,0,232.238,1.0,0.007,0.043,0.006,,1.0,0.686672
0.98,2.08718,170.0,0.0413429,21.0,1,580.0,92.949,1,0,68.5261,1.0,0.007,0.042,0.006,392.0,1.0,0.0812679
0.98,1.02467,170.0,0.0300492,21.0,1,580.0,-247.028,1,0,55.7046,1.0,0.007,0.042,0.006,,1.0,0.81659
1.39,4.60912,170.0,0.0672927,21.0,1,580.0,331.858,1,0,224.107,1.0,0.007,0.045,0.005,,1.0,1.01721
1.39,2.30834,170.0,0.0385989,21.0,1,580.0,393.268,1,0,187.866,1.0,0.007,0.045,0.005,,1.0,0.200934
1.83,5.4496,170.0,0.0232478,21.0,1,580.0,511.243,1,0,215.684,1.0,0.008,0.045,0.005,,1.0,0.47846
1.83,1.16916,170.0,-0.0236462,21.0,1,580.0,-53.5855,1,0,120.714,1.0,0.008,0.045,0.005,,1.0,0.5585
0.63,1.59064,170.0,0.00297015,21.0,1,580.0,-165.103,1,0,89.9834,1.0,0.007,0.058,0.007,,1.0,0.641177
0.97,3.89566,170.0,0.0663619,21.0,1,580.0,382.612,1,0,2.29878,1.0,0.008,0.065,0.007,,1.0,0.77459
0.97,3.34371,170.0,0.0759529,21.0,1,580.0,307.936,1,0,118.717,1.0,0.008,0.065,0.007,,1.0,1.39733
1.36,2.35525,170.0,0.0245012,21.0,1,580.0,120.542,1,0,150.256,1.0,0.008,0.066,0.007,,1.0,0.564763
1.36,1.68607,170.0,0.128865,21.0,1,580.0,-95.6991,1,0,68.7026,1.0,0.008,0.066,0.007,,1.0,0.278138
1.8,0.106322,170.0,0.0481869,21.0,1,580.0,127.935,1,0,120.95,1.0,0.008,0.074,0.008,,1.0,0.127969
0.68,6.9853,170.0,0.197937,21.0,1,580.0,409.087,1,0,180.634,1.0,0.008,0.089,0.008,394.0,1.0,0.784977
0.68,3.89034,170.0,0.118847,21.0,1,580.0,467.603,1,0,112.309,1.0,0.008,0.089,0.008,,1.0,1.15916
1.05,0.779103,170.0,-0.0239007,21.0,1,580.0,38.9911,1,0,95.9919,1.0,0.008,0.095,0.007,,1.0,0.024688
1.05,1.6412,170.0,0.0987377,21.0,1,580.0,188.704,1,0,92.1934,1.0,0.008,0.095,0.007,,1.0,0.086001
1.33,1.88712,170.0,0.0633581,21.0,1,580.0,192.606,1,0,149.489,1.0,0.007,0.088,0.008,,1.0,0.215529
1.33,0.687134,170.0,0.040373,21.0,1,580.0,408.866,1,0,44.8224,1.0,0.007,0.088,0.008,,1.0,0.380051
1.69,2.4171,170.0,0.0985954,21.0,1,580.0,112.77,1,0,24.3428,1.0,0.008,0.089,0.007,,1.0,0.657764
0.63,7.04976,170.0,0.22652,21.0,1,580.0,594.01,1,0,224.511,1.0,0.008,0.151,0.008,449.0,1.0,0.996522
0.63,6.94674,170.0,0.180118,21.0,1,580.0,675.758,1,0,205.73,1.0,0.008,0.151,0.008,,1.0,0.815817
1.02,5.16566,170.0,0.227644,21.0,1,580.0,-24.9971,1,0,90.7673,1.0,0.007,0.147,0.007,,1.0,1.37458
1.02,8.41286,170.0,0.231434,21.0,1,580.0,647.612,1,0,308.999,1.0,0.007,0.147,0.007,,1.0,0.484367
1.38,6.63872,170.0,0.178563,21.0,1,580.0,636.406,1,0,197.527,1.0,0.007,0.147,0.007,,1.0,0.46326
1.76,6.36284,170.0,0.255467,21.0,1,580.0,325.95,1,0,254.552,1.0,0.007,0.145,0.006,567.0,1.0,0.48458
1.76,6.57974,170.0,0.267826,21.0,1,580.0,334.077,1,0,306.069,1.0,0.007,0.145,0.006,,1.0,0.545605
1.45,-1.20351,170.0,-0.0398862,21.0,0,0.0,-54.5546,1,0,90.0,1.0,0.005,0.074,0.005,,1.0,-0.0731856
1.49,2.99051,170.0,0.0772353,21.0,0,0.0,253.933,1,0,84.0,1.0,0.007,0.073,0.004,,1.0,-0.061472
1.46,-2.03141,170.0,-0.0564936,21.0,0,0.0,73.5051,1,0,85.0,1.0,0.006,0.071,0.004,,1.0,-0.120567
1.36,-0.247127,170.0,0.0102748,21.0,0,0.0,167.491,1,0,81.0,1.0,0.006,0.061,0.005,,1.0,0.468277
1.48,-2.76501,170.0,-0.0925159,21.0,0,0.0,-106.279,1,0,75.0,1.0,0.006,0.07,0.005,,1.0,-0.133078
1.38,-1.74066,170.0,-0.0402097,21.0,0,0.0,-86.4111,1,0,74.0,1.0,0.005,0.068,0.004,,1.0,-0.663569
1.51,-0.263239,170.0,-0.00108703,21.0,0,0.0,82.4666,1,0,87.0,1.0,0.006,0.068,0.006,,1.0,0.144379
1.53,1.36599,170.0,-0.00589726,21.0,0,0.0,136.357,1,0,93.0,1.0,0.006,0.065,0.005,,1.0,0.26884
1.64,1.2213,170.0,-0.0407479,21.0,0,0.0,205.52,1,0,102.0,1.0,0.006,0.07,0.005,,1.0,0.29016
1.75,0.298001,170.0,0.0991705,21.0,0,0.0,79.7453,1,0,96.0,1.0,0.005,0.075,0.006,,1.0,0.383592
0.63,1.7857,170.0,0.0457585,21.0,1,0.0,158.087,1,0,66.0,1.0,0.007,0.074,0.009,,1.0,-0.186592
0.65,1.16583,170.0,0.024857,21.0,1,580.0,352.915,1,0,73.0,1.0,0.004,0.074,0.005,329.0,1.0,1.03745
0.67,3.67419,170.0,0.0497548,21.0,1,250.0,231.634,1,0,70.0,1.0,0.007,0.076,0.009,410.0,1.0,-0.0964563
0.71,-0.198076,170.0,0.0840877,21.0,1,0.0,130.636,1,0,76.0,1.0,0.008,0.078,0.006,,1.0,-0.163651
1.0,2.17496,170.0,0.0833776,21.0,1,580.0,-158.125,1,0,83.0,1.0,0.007,0.077,0.008,372.0,1.0,0.950035
1.03,1.39184,170.0,0.0707012,21.0,1,250.0,42.4336,1,0,79.0,1.0,0.007,0.075,0.008,427.0,1.0,0.694949
1.05,0.976952,170.0,0.0625796,21.0,1,0.0,229.604,1,0,82.0,1.0,0.007,0.075,0.008,,1.0,-0.293644
1.1,3.8464,170.0,0.0417069,21.0,1,580.0,317.733,1,0,73.0,1.0,0.005,0.078,0.007,399.0,1.0,0.401967
1.33,2.56586,170.0,-0.0470063,21.0,1,250.0,176.97,1,0,83.0,1.0,0.005,0.077,0.007,463.0,1.0,0.0952987
1.32,2.5882,170.0,-0.0287974,21.0,1,0.0,170.524,1,0,77.0,1.0,0.007,0.073,0.008,,1.0,-0.0995325
1.35,3.37919,170.0,0.171442,21.0,1,580.0,464.597,1,0,78.0,1.0,0.007,0.079,0.008,413.0,1.0,0.33195
1.79,0.0575268,170.0,0.0146152,21.0,1,250.0,-172.312,1,0,82.0,1.0,0.006,0.077,0.007,458.0,1.0,-0.0056595
1.75,1.71312,170.0,-0.0324062,21.0,1,0.0,351.948,1,0,94.0,1.0,0.006,0.078,0.007,,1.0,0.130295
1.76,0.467891,170.0,0.0338995,21.0,1,580.0,-97.994,1,0,81.0,1.0,0.007,0.077,0.007,429.0,1.0,0.526012
1.82,0.870086,170.0,0.0439839,21.0,1,250.0,241.773,1,0,81.0,1.0,0.007,0.079,0.006,536.0,1.0,0.52892
1.46,3.85956,170.0,0.0893096,21.0,1,0.0,194.447,1,0,81.0,1.0,0.007,0.077,0.008,471.0,1.0,-0.27889
1.47,-1.07661,170.0,0.125333,21.0,1,0.0,-65.4903,1,0,77.0,1.0,0.006,0.069,0.005,504.0,1.0,0.117459
1.5,-1.22502,170.0,-0.058608,21.0,1,0.0,171.189,1,0,160.0,1.0,0.008,0.069,0.008,522.0,1.0,-0.00705318
1.5,-0.938583,170.0,-0.059848,21.0,1,0.0,-55.3881,1,0,155.0,1.0,0.006,0.07,0.004,535.0,1.0,0.305807
1.45,1.96935,170.0,-0.0407498,21.0,1,0.0,304.613,1,0,239.0,1.0,0.009,0.07,0.009,523.0,1.0,-0.286809
0.66,2.50226,170.0,-0.0736891,21.0,1,0.0,256.785,1,0,70.0,1.0,0.013,0.035,0.006,392.0,1.0,0.27575
1.42,-2.35063,170.0,-0.0614026,21.0,1,0.0,210.651,1,0,90.0,1.0,0.013,0.049,0.005,468.0,1.0,0.220912
1.21,0.05,170.0,0.01,24.0,1,0.0,74.4852,1,0,143.0,1.0,0.024,0.05,0.013,665.0,2.1,0.34
1.42,0.05,170.0,0.01,24.0,1,0.0,226.158,1,0,87.0,1.0,0.028,0.1,0.009,798.0,2.1,0.35
0.84,-1.15537,165.0,-0.0508423,25.0,1,0.0,81.776,1,0,-16.1563,-1.0,0.01,0.04,0.009,481.0,1.0,-0.509675
0.83,-1.85003,165.0,-0.185758,25.0,1,0.0,-15.2881,1,0,-1.21384,-1.0,0.011,0.04,0.01,536.0,1.0,-0.330381
1.03,9.08,180.0,0.19,34.0,1,750.0,430.0,1,0,515.0,1.0,0.012,0.093,0.008,551.0,1.0,0.98
1.0,9.31,180.0,0.19,34.0,1,750.0,430.0,1,0,517.0,1.0,0.017,0.094,0.008,526.0,1.0,0.98
1.03,9.26,180.0,0.19,34.0,1,750.0,580.0,1,0,537.0,1.0,0.015,0.094,0.008,489.0,1.0,0.84
0.96,0.832226,170.0,0.00696005,21.0,1,250.0,264.183,1,0,84.0,1.0,0.017,0.05,0.01,449.0,1.8,0.01
0.92,-0.562588,170.0,-0.0592341,21.0,1,250.0,-217.559,1,0,114.0,1.0,0.019,0.05,0.011,514.0,1.8,0.51
1.63,-0.937057,170.0,0.0508482,21.0,1,250.0,-118.765,1,0,106.0,1.0,0.02,0.06,0.01,612.0,1.8,0.34
2.0,1.03217,170.0,-0.104327,21.0,1,250.0,-70.8415,1,0,117.0,1.0,0.02,0.06,0.01,583.0,1.8,0.01
1.99,-0.894009,170.0,-0.0353532,21.0,1,250.0,220.13,1,0,102.0,1.0,0.022,0.055,0.01,701.0,1.8,0.54
0.78,0.282274,180.0,-0.0877244,23.0,1,0.0,-56.7755,1,0,95.0,1.0,0.01,0.03,0.013,,1.0,-0.187001
1.27,-1.37017,180.0,-0.0953129,23.0,1,0.0,101.268,1,0,94.0,1.0,0.01,0.032,0.008,440.0,1.0,-0.351882
1.27,-2.81892,180.0,-0.0755708,23.0,1,0.0,-541.789,1,0,94.0,1.0,0.01,0.032,0.008,,1.0,-0.0743005
1.71,-0.887393,180.0,-0.0442248,23.0,1,0.0,-19.3142,1,0,109.0,1.0,0.01,0.031,0.004,,1.0,0.169085
2.05,-0.653524,180.0,-0.12567,23.0,1,0.0,113.78,1,0,119.0,1.0,0.01,0.032,0.002,506.0,1.0,-0.477596
2.05,0.515583,180.0,-0.0372056,23.0,1,0.0,262.877,1,0,119.0,1.0,0.01,0.032,0.002,,1.0,-0.150878
0.77,1.28156,180.0,-0.0907404,23.0,1,0.0,23.959,1,0,66.0,1.0,0.01,0.059,0.01,,1.0,-0.0162097
1.09,3.08933,180.0,-0.0145636,23.0,1,0.0,299.871,1,0,64.0,1.0,0.01,0.059,0.008,430.0,1.0,-0.228767
1.09,-1.98098,180.0,-0.101104,23.0,1,0.0,27.4523,1,0,64.0,1.0,0.01,0.059,0.008,,1.0,-0.252351
1.44,-0.96864,180.0,0.0609564,23.0,1,0.0,-77.9741,1,0,65.0,1.0,0.01,0.059,0.006,,1.0,0.0958107
1.83,-2.22678,180.0,-0.0250298,23.0,1,0.0,207.89,1,0,76.0,1.0,0.01,0.065,0.003,496.0,1.0,-0.573083
1.83,-0.853321,180.0,-0.107348,23.0,1,0.0,57.8688,1,0,76.0,1.0,0.01,0.065,0.003,,1.0,-0.193263
0.78,-1.13914,180.0,-0.0248176,23.0,1,0.0,80.9478,1,0,36.0,1.0,0.01,0.09,0.013,,1.0,0.244014
1.18,0.359686,180.0,0.0487598,23.0,1,0.0,94.2385,1,0,73.0,1.0,0.01,0.089,0.011,450.0,1.0,0.465688
1.18,2.43218,180.0,0.0146623,23.0,1,0.0,258.968,1,0,73.0,1.0,0.01,0.089,0.011,,1.0,0.178102
1.59,1.81105,180.0,-0.0309177,23.0,1,0.0,203.726,1,0,77.0,1.0,0.01,0.088,0.011,,1.0,0.0429893
2.25,1.33602,180.0,0.0113232,23.0,1,0.0,169.183,1,0,88.0,1.0,0.014,0.098,0.008,541.0,1.0,0.149748
2.25,0.877257,180.0,-0.0149612,23.0,1,0.0,116.557,1,0,88.0,1.0,0.014,0.098,0.008,,1.0,-0.279204
0.86,-1.68971,180.0,0.0518675,23.0,1,0.0,189.045,1,0,54.0,1.0,0.014,0.12,0.011,,1.0,0.265089
1.35,1.81376,180.0,0.10523,23.0,1,0.0,361.581,1,0,55.0,1.0,0.014,0.12,0.01,516.0,1.0,-0.0700974
1.35,0.809302,180.0,0.0242681,23.0,1,0.0,-402.064,1,0,55.0,1.0,0.014,0.12,0.01,,1.0,0.117106
1.83,-2.55306,180.0,-0.0181236,23.0,1,0.0,-146.695,1,0,63.0,1.0,0.011,0.13,0.01,,1.0,-0.218233
2.18,0.119757,180.0,0.040239,23.0,1,0.0,209.573,1,0,74.0,1.0,0.011,0.11,0.008,617.0,1.0,-0.557835
2.18,-2.59359,180.0,-0.0693322,23.0,1,0.0,-134.58,1,0,74.0,1.0,0.011,0.11,0.008,,1.0,-0.334776
1.12,0.12,280.0,0.015,30.0,0,200.0,20.0,1,0,73.0,1.0,0.015,0.058,0.013,,2.8,0.300396
1.17,0.05,280.0,0.013,30.0,0,200.0,100.0,1,0,34.0,1.0,0.011,0.065,0.015,,2.8,0.445016
0.81,0.05,285.0,0.011,32.0,0,200.0,10.0,1,0,59.0,1.0,0.009,0.055,0.01,,2.9,0.518684
1.74,0.09,280.0,0.006,30.0,0,200.0,20.0,1,0,37.0,1.0,0.015,0.046,0.008,,2.8,0.690859
1.06,0.027,170.0,0.102567,21.0,1,580.0,247.187,1,0,63.0,1.0,0.009,0.068,0.006,,1.0,0.863808
1.05,0.79,170.0,0.0434977,21.0,1,580.0,95.4232,1,0,73.0,1.0,0.007,0.072,0.005,,1.0,0.0891467
1.06,1.57,170.0,-0.0403659,21.0,1,580.0,239.477,1,0,85.0,1.0,0.008,0.07,0.006,,1.0,-0.116759
1.05,2.28,170.0,0.0156636,21.0,1,580.0,278.091,1,0,88.0,1.0,0.008,0.077,0.006,,1.0,0.685336
0.75,0.5,680.0,-0.0119243,34.0,0,0.0,320.0,1,1,80.0,1.0,0.01,0.05,0.006,576.0,3.3,0.23
0.98,0.42,670.0,-0.0114657,34.0,0,0.0,210.0,1,1,80.0,1.0,0.011,0.05,0.005,561.0,3.3,0.27
0.82,0.55,660.0,0.00824009,34.0,0,0.0,320.0,1,1,80.0,1.0,0.011,0.05,0.007,636.0,3.3,0.29
1.11,0.52,660.0,-0.0574445,34.0,0,0.0,200.0,1,1,70.0,1.0,0.014,0.05,0.005,555.0,3.3,0.37
1.84,0.05,700.0,0.01,32.0,0,0.0,224.008,1,1,54.0,1.0,0.016,0.08,0.013,507.0,4.8,0.01
1.85,0.05,700.0,0.01,32.0,0,0.0,119.666,1,1,52.0,1.0,0.017,0.08,0.013,504.0,4.8,0.01
1.9,0.05,700.0,0.01,32.0,0,0.0,338.788,1,1,56.0,1.0,0.015,0.09,0.013,466.0,4.8,0.01
0.95,0.0,441.094,0.006,39.1824,1,600.0,60.0,1,0,90.0,1.0,0.021,0.07,0.027,430.7,2.7,0.0
0.93,0.0,421.505,0.004,43.9385,1,600.0,120.0,1,0,160.0,1.0,0.058,0.09,0.011,420.9,2.5,0.02
1.07,0.0,486.353,0.014,22.212,1,600.0,40.0,1,0,94.0,1.0,0.026,0.07,0.025,456.2,2.8,0.0
0.9,0.0,378.597,0.0,23.6624,1,600.0,0.0,1,0,70.0,1.0,0.027,0.09,0.01,,1.8,0.0
1.15,0.02,398.902,0.0,33.2285,1,600.0,0.0,1,0,100.0,1.0,0.015,0.06,0.013,,1.8,0.0
1.1,0.0,238.269,0.01,18.2199,1,600.0,0.0,1,0,190.0,1.0,0.02,0.07,0.011,,1.9,0.0
1.15,0.0,327.31,0.004,33.9954,0,600.0,50.0,1,1,140.0,1.0,0.024,0.05,0.015,387.5,2.4,0.0
1.52,0.0,436.898,0.005,33.5462,0,600.0,50.0,1,1,110.0,1.0,0.045,0.09,0.015,562.1,2.4,0.5
1.2,0.0,398.601,0.0,22.3082,0,600.0,0.0,1,1,99.0,1.0,0.025,0.15,0.017,487.6,1.6,0.0
1.2,0.0,371.352,0.0,42.0289,0,600.0,60.0,1,1,89.0,1.0,0.024,0.1,0.013,390.1,1.7,0.0
1.44,0.836654,625.0,0.009,75.36,0,0.0,93.0976,1,0,102.0,1.0,0.024,0.064,0.021,,4.6,0.02
1.44,0.0669808,625.0,0.009,75.36,0,0.0,-292.855,1,0,124.0,1.0,0.018,0.073,0.021,,4.6,0.02
1.68,-2.24783,625.0,0.01,75.36,0,0.0,-113.163,1,0,133.0,1.0,0.019,0.06,0.017,,4.6,0.02
1.67,-0.634076,625.0,0.01,75.36,0,0.0,-85.9129,1,0,82.0,1.0,0.017,0.08,0.017,391.0,4.6,0.03
1.67,1.13506,625.0,0.01,75.36,0,0.0,-595.622,1,0,82.0,1.0,0.017,0.08,0.017,,4.6,0.03
1.68,2.37614,625.0,0.01,75.36,0,0.0,468.056,1,0,77.0,1.0,0.02,0.086,0.023,,4.6,0.01
2.22,-0.342936,625.0,0.01,75.36,0,0.0,-124.749,1,0,82.0,1.0,0.025,0.089,0.022,,4.6,0.02
1.34,0.949085,625.0,0.01,75.36,0,0.0,176.1,1,0,86.0,1.0,0.02,0.08,0.023,,4.6,0.43
1.88,-3.25455,625.0,0.01,75.36,0,0.0,-170.057,1,0,84.0,1.0,0.022,0.095,0.02,747.0,4.6,0.44
1.88,-3.15584,625.0,0.01,75.36,0,0.0,-424.995,1,0,84.0,1.0,0.022,0.095,0.02,,4.6,0.44
0.84,-1.9866,625.0,0.004,72.24,0,0.0,108.74,1,0,84.0,1.0,0.026,0.074,0.015,,4.4,0.02
0.75,1.91258,625.0,0.005,72.24,0,0.0,-124.249,1,0,109.0,1.0,0.02,0.082,0.014,,4.4,0.02
1.17,-0.0659495,625.0,0.01,72.24,0,0.0,-169.312,1,0,108.0,1.0,0.02,0.07,0.013,,4.4,0.02
1.09,-1.21669,625.0,0.01,72.24,0,0.0,-286.575,1,0,78.0,1.0,0.018,0.11,0.012,376.0,4.4,0.03
1.09,-1.79521,625.0,0.01,72.24,0,0.0,-238.809,1,0,78.0,1.0,0.018,0.11,0.012,,4.4,0.03
1.29,0.361591,625.0,0.01,72.24,0,0.0,306.822,1,0,61.0,1.0,0.017,0.098,0.017,,4.4,0.01
1.91,-0.570093,625.0,0.01,72.24,0,0.0,-510.185,1,0,74.0,1.0,0.016,0.1,0.016,,4.4,0.02
0.73,0.150963,625.0,0.01,72.24,0,0.0,38.1313,1,0,81.0,1.0,0.022,0.096,0.018,,4.4,0.43
1.46,-0.458226,625.0,0.01,72.24,0,0.0,-90.2225,1,0,77.0,1.0,0.026,0.12,0.014,689.0,4.4,0.48
1.32,0.04,550.0,0.0255849,28.0,0,0.0,160.31,1,1,95.0,1.0,0.017,0.094,0.009,429.0,3.6,0.288942
1.37,0.06,550.0,0.0936481,28.0,0,0.0,300.0,1,1,99.0,1.0,0.028,0.1,0.02,498.0,3.6,0.02
1.18,0.08,550.0,0.01,28.0,0,0.0,200.0,1,1,131.0,1.0,0.018,0.09,0.012,427.0,3.6,0.03
0.62,1.15079,181.747,-0.123703,17.113,1,250.0,87.9175,1,0,167.799,1.0,0.007,0.044,0.007,445.0,0.6,0.216808
1.42,2.6393,38.2665,0.0732347,-5.7741,1,250.0,76.2384,1,0,106.834,1.0,0.009,0.05,0.007,511.0,0.6,0.473909
0.6,-0.518744,129.912,-0.13393,29.9322,1,250.0,-107.902,1,0,218.123,1.0,0.009,0.037,0.006,401.0,1.0,0.502635
1.41,4.20363,221.403,0.0807038,17.1137,1,250.0,222.072,1,0,145.396,1.0,0.012,0.048,0.006,479.0,1.0,0.270477
0.55,2.64944,300.03,-0.0226782,27.3003,1,250.0,44.6447,1,0,121.566,1.0,0.005,0.038,0.007,389.0,2.2,0.386564
1.37,3.40223,274.727,0.11917,41.4065,1,250.0,382.657,1,0,177.85,1.0,0.012,0.042,0.007,438.0,2.2,0.591404
0.52,-0.644748,584.432,0.0641078,30.1832,1,250.0,315.474,1,0,62.7885,1.0,0.01,0.043,0.009,341.0,4.3,0.541161
1.37,2.78125,506.281,0.0887997,32.6189,1,250.0,6.97313,1,0,226.482,1.0,0.013,0.043,0.008,405.0,4.3,0.427437
1.34,0.05,850.0,0.005,35.0,0,0.0,180.0,1,1,89.0,1.0,0.013,0.125,0.012,505.0,7.9,0.003
1.3,0.05,850.0,0.0873794,35.0,0,0.0,160.0,1,1,99.0,1.0,0.016,0.115,0.012,473.0,7.9,0.005
1.21,0.03,850.0,0.002,35.0,0,0.0,289.26,1,1,101.0,1.0,0.012,0.1055,0.012,504.0,7.9,0.17
1.26,0.03,850.0,0.002,35.0,0,0.0,160.0,1,1,119.0,1.0,0.013,0.12,0.01,529.0,7.9,0.145
0.6,-0.667505,170.0,0.0186241,21.0,1,0.0,110.925,1,0,-82.4807,1.0,0.012,0.036,0.008,450.0,1.0,-0.250775
0.58,1.16334,170.0,-0.146881,21.0,1,0.0,152.274,1,0,91.264,1.0,0.012,0.039,0.008,411.0,1.0,-0.391185
0.6,-0.99114,170.0,-0.0161236,21.0,1,0.0,-430.371,1,0,-63.2402,1.0,0.01,0.037,0.008,390.0,1.0,-0.0341545
0.55,2.43675,170.0,-0.0533965,21.0,1,0.0,215.575,1,0,74.6666,1.0,0.01,0.042,0.008,371.0,1.0,-0.206624
1.46,0.056,650.0,0.12,33.0,0,0.0,40.0,1,1,11.5219,1.0,0.028,0.12,0.025,570.0,3.3,0.005
1.57,0.059,650.0,0.122,33.0,0,0.0,60.0,1,1,72.6,1.0,0.028,0.15,0.026,661.0,3.3,0.11
1.38,0.06,850.0,0.095,38.0,0,0.0,50.0,1,1,28.7589,1.0,0.028,0.13,0.014,530.0,7.6,0.005
1.46,0.062,850.0,0.103,38.0,0,0.0,50.0,1,1,56.2617,1.0,0.026,0.13,0.011,641.0,7.6,0.26
1.39,0.069,650.0,0.032,33.0,0,0.0,50.0,1,1,-15.0438,1.0,0.017,0.11,0.009,525.0,3.3,0.008
1.51,0.07,650.0,0.036,33.0,0,0.0,50.0,1,1,99.6812,1.0,0.013,0.12,0.006,592.0,3.3,0.27
1.4,0.11,650.0,0.005,33.0,0,0.0,50.0,1,1,90.0413,1.0,0.075,0.12,0.016,426.0,3.3,0.025
1.39,0.03,650.0,0.049,33.0,0,0.0,150.0,1,1,54.0,1.0,0.015,0.08,0.011,562.0,3.3,0.17
1.06,0.02,650.0,0.005,33.0,0,0.0,50.0,1,1,67.0,1.0,0.013,0.16,0.028,355.0,3.3,0.005
1.44,0.056,650.0,0.105,33.0,0,0.0,50.0,1,1,145.0,1.0,0.012,0.11,0.008,577.0,3.3,0.01
1.54,0.049,650.0,0.057,33.0,0,0.0,50.0,1,1,138.0,1.0,0.016,0.1,0.009,556.0,3.3,0.18
1.0,0.02,650.0,0.005,33.0,0,0.0,50.0,1,1,62.0,1.0,0.014,0.16,0.032,599.0,3.3,0.39
1.33,0.053,650.0,0.097,33.0,0,0.0,50.0,1,1,145.0,1.0,0.011,0.11,0.008,559.0,3.3,0.44
1.55,-0.872761,650.0,0.09,33.0,0,600.0,0.0,1,1,7.49652,1.0,0.0449843,0.11,0.029,631.0,3.3,0.0
1.4,0.11,650.0,0.105618,33.0,0,0.0,50.0,1,1,50.0,1.0,0.025,0.12,0.016,426.0,3.3,0.025
1.23,0.065,850.0,-0.0188191,38.0,0,0.0,200.0,1,1,186.736,1.0,0.02,0.15,0.015,432.0,7.6,0.02
1.5,0.075,650.0,0.0468991,33.0,0,0.0,100.0,1,1,-16.2049,1.0,0.017,0.12,0.008,544.0,3.3,0.3
0.99,9.5,201.0,0.19,22.0,1,0.0,100.0,1,0,450.0,1.0,0.021,0.09,0.012,,1.4,0.96
1.03,8.8,180.0,0.25,23.0,1,740.0,800.0,1,0,370.0,1.0,0.01,0.09,0.004,,1.3,1.03
1.08,9.0,116.0,0.29,23.0,1,0.0,565.416,1,0,110.0,1.0,0.014,0.06,0.007,,1.3,1.03
1.08,9.0,116.0,0.29,23.0,1,740.0,643.54,1,0,110.0,1.0,0.014,0.06,0.007,,1.3,1.03
1.0,8.3,116.0,0.24,23.0,1,720.0,340.0,1,0,250.0,1.0,0.006,0.07,0.002,,1.3,0.93
1.0,8.3,116.0,0.24,23.0,1,760.0,340.0,1,0,250.0,1.0,0.006,0.07,0.002,,1.3,0.93
1.1,8.9,115.0,0.18,23.0,1,720.0,900.0,1,0,400.0,1.0,0.013,0.11,0.007,,1.0,1.0
1.1,8.9,115.0,0.18,23.0,1,760.0,900.0,1,0,400.0,1.0,0.013,0.11,0.007,,1.0,1.0
1.23,8.4,163.0,0.22,25.0,1,740.0,300.0,1,0,80.0,1.0,0.002,0.06,-0.000368057,,1.2,0.89
0.96,8.6,145.0,0.22,20.0,1,750.0,200.0,1,0,430.0,1.0,0.006,0.1,0.003,,1.0,0.97
0.98,8.7,145.0,0.22,21.0,1,750.0,300.0,1,0,420.0,1.0,0.008,0.1,0.004,,1.2,0.98
0.96,8.8,143.0,0.21,21.0,1,760.0,900.0,1,0,430.0,1.0,0.006,0.1,0.003,,1.1,1.01
0.91,8.9,146.0,0.21,22.0,1,760.0,900.0,1,0,410.0,1.0,0.008,0.1,0.004,,1.1,0.98
0.6,8.75,400.0,0.2,31.5,0,746.0,339.314,0,0,390.0,1.0,0.011,0.1,0.002,650.0,1.4,1.02
0.48,8.6,390.0,0.22,11.5,0,746.0,528.993,1,0,260.0,1.0,0.011,0.09,0.004,647.0,1.9,0.98
0.44,8.58,275.0,0.22,28.5,0,746.0,501.395,1,0,340.0,1.0,0.011,0.11,0.004,605.0,1.2,1.0
0.55,2.68,500.0,0.193434,32.0,0,690.0,-16.7026,1,0,127.69,1.0,0.013,0.1,0.009,492.0,2.0,1.05
0.55,2.68,500.0,0.0883002,32.0,0,690.0,289.091,1,0,272.836,1.0,0.013,0.1,0.009,,2.0,1.05
0.67,2.63,500.0,0.0837436,32.0,0,690.0,234.39,1,0,64.0136,1.0,0.009,0.06,0.011,,2.0,1.06
0.53,2.7,500.0,0.105447,32.0,0,690.0,335.638,1,0,67.3408,1.0,0.007,0.1,0.007,,2.0,1.03
0.53,2.7,500.0,0.0807708,32.0,0,690.0,310.259,1,0,59.8622,1.0,0.007,0.1,0.007,,2.0,1.03
0.68,2.22,500.0,0.128956,30.0,0,690.0,-190.849,1,0,207.945,1.0,0.006,0.09,0.013,,3.6,1.03
0.73,2.3,500.0,0.27,29.0,0,690.0,200.0,0,1,26.0,0.0,0.005,0.11,0.002,,2.9,1.03
0.73,2.3,500.0,0.27,29.0,0,690.0,200.0,0,1,26.0,0.0,0.005,0.11,0.002,,2.9,1.03
1.03,2.3,500.0,0.27,29.0,0,690.0,200.0,0,1,22.0,0.0,0.006,0.12,0.002,,2.9,1.03
1.03,2.3,500.0,0.27,29.0,0,690.0,200.0,0,1,22.0,0.0,0.006,0.12,0.002,,2.9,1.03
0.75,2.3,500.0,0.27,29.0,0,690.0,200.0,0,1,21.0,0.0,0.005,0.14,0.002,,2.9,1.01
0.75,2.3,500.0,0.27,29.0,0,690.0,200.0,0,1,21.0,0.0,0.005,0.14,0.002,,2.9,1.01
1.32,2.27,500.0,0.32,29.0,0,690.0,200.0,0,1,127.0,0.0,0.008,0.11,0.002,,2.9,1.0
1.18,2.26,500.0,0.31,29.0,0,690.0,200.0,0,1,312.0,0.0,0.007,0.12,0.002,,2.9,1.0
1.24,0.037,316.183,0.054921,46.8317,0,550.0,-142.024,1,1,86.0,1.0,0.015,0.084,0.011,,2.4,0.385
0.54,2.2,464.729,0.0826228,32.0029,0,690.0,90.4191,1,1,66.0,1.0,0.008,0.084,0.005,524.0,2.4,1.05
0.54,2.2,362.341,0.0184319,42.7768,0,690.0,-3.16322,1,1,66.0,1.0,0.008,0.084,0.005,,2.4,1.05
1.15,0.052,371.699,0.0231448,27.4044,0,605.0,-4.45241,1,1,97.0,1.0,0.017,0.06,0.007,,2.4,0.45
0.67,2.31,535.0,0.0422131,63.0,0,690.0,240.0,0,0,240.0,0.0,0.0289481,0.1,0.0179062,596.0,1.8,0.29
0.98,2.07,300.0,0.015,28.0,0,690.0,235.673,1,0,97.0,1.0,0.01,0.07,0.01,,2.04,1.07
0.98,2.07,300.0,0.015,28.0,0,690.0,9.1871,1,0,97.0,1.0,0.01,0.07,0.01,,2.04,1.07
0.98,2.07,300.0,0.015,28.0,0,690.0,141.214,1,0,97.0,1.0,0.01,0.07,0.01,,2.04,1.07
1.06,2.02,300.0,0.02,28.0,0,690.0,235.957,1,0,266.0,1.0,0.016,0.048,0.014,,1.96,1.3
1.06,2.02,300.0,0.02,28.0,0,690.0,-15.2571,1,0,266.0,1.0,0.016,0.048,0.014,,1.96,1.3
0.86,2.01,300.0,0.02,20.0,0,690.0,285.972,1,0,123.0,1.0,0.017,0.043,0.011,505.0,2.08,0.93
0.86,2.01,300.0,0.02,20.0,0,690.0,-94.8654,1,0,123.0,1.0,0.017,0.043,0.011,,2.08,0.93
1.33,2.39,300.0,0.015,28.0,0,690.0,163.677,1,0,236.0,1.0,0.015,0.042,0.012,520.0,1.96,1.21
1.33,2.39,300.0,0.015,28.0,0,690.0,217.95,1,0,236.0,1.0,0.015,0.042,0.012,,1.96,1.21
1.33,2.39,300.0,0.015,28.0,0,690.0,188.41,1,0,236.0,1.0,0.015,0.042,0.012,,1.96,1.21
1.0,2.29,300.0,0.018,28.0,0,690.0,315.795,1,0,165.0,1.0,0.016,0.047,0.015,,2.08,1.04
1.0,2.29,300.0,0.018,28.0,0,690.0,119.665,1,0,165.0,1.0,0.016,0.047,0.015,,2.08,1.04
1.11,2.3,290.0,0.018,29.0,0,690.0,-151.767,1,0,113.0,1.0,0.024,0.074,0.009,595.0,2.0,0.96
1.11,2.3,290.0,0.018,29.0,0,690.0,-56.2382,1,0,113.0,1.0,0.024,0.074,0.009,,2.0,0.96
1.11,2.3,290.0,0.018,29.0,0,690.0,159.464,1,0,113.0,1.0,0.024,0.074,0.009,,2.0,0.96
1.24,2.17,290.0,0.18,29.0,0,690.0,232.559,1,0,269.0,1.0,0.25,0.062,0.14,,2.0,0.98
1.24,2.17,290.0,0.18,29.0,0,690.0,38.7278,1,0,269.0,1.0,0.25,0.062,0.14,,2.0,0.98
1.24,2.17,290.0,0.18,29.0,0,690.0,-81.584,1,0,269.0,1.0,0.25,0.062,0.14,,2.0,0.98
0.82,2.5,423.644,0.0687411,33.2102,0,704.0,471.608,1,0,160.0,1.0,0.008,0.055,0.021,457.0,3.6,0.99
0.73,2.8,150.0,0.129606,37.5,1,690.0,-71.1299,1,0,110.956,1.0,0.018,0.05,0.015,591.0,1.0,1.1
0.88,2.5,150.0,0.188615,37.5,1,690.0,72.4868,1,0,259.372,1.0,0.028,0.125,0.025,646.0,1.0,1.4
0.27,2.2,150.0,0.140176,37.5,1,690.0,138.963,1,0,98.3569,1.0,0.016,0.061,0.022,537.0,1.0,1.2
0.45,2.3,150.0,0.0501752,37.5,1,690.0,388.409,1,0,183.594,1.0,0.017,0.044,0.014,392.0,1.0,0.79282
0.77,2.2,150.0,0.122854,37.5,1,690.0,217.939,1,0,127.033,1.0,0.018,0.075,0.021,562.0,1.0,1.1
1.25,2.4,150.0,0.166651,37.5,1,690.0,-349.481,1,0,188.749,1.0,0.022,0.09,0.011,594.0,1.0,0.9
1.1,2.4,150.0,0.162627,37.5,1,690.0,276.426,1,0,80.5416,1.0,0.02,0.09,0.013,648.0,1.0,0.8
0.96,2.4,150.0,0.10515,37.5,1,690.0,78.5625,1,0,68.2799,1.0,0.018,0.05,0.017,,1.0,1.1
0.8,2.3,525.0,0.118163,30.0,0,700.0,-112.729,1,1,198.011,1.0,0.01,0.08,0.01,,1.75,1.05
0.8,2.3,525.0,0.133851,30.0,0,700.0,161.248,1,1,169.304,1.0,0.01,0.08,0.01,,1.75,1.05
0.8,2.3,525.0,0.0635552,30.0,0,700.0,371.428,1,1,157.389,1.0,0.01,0.08,0.01,,1.75,1.05
0.8,2.3,525.0,0.124653,30.0,0,700.0,22.3452,1,1,156.674,1.0,0.01,0.08,0.01,,1.75,1.05
0.8,2.3,525.0,0.0491933,30.0,0,700.0,87.3826,1,1,125.374,1.0,0.01,0.08,0.01,,1.75,1.05
0.88,2.06,545.0,0.015224,32.0,0,720.0,161.347,1,1,111.338,1.0,0.013,0.03,0.012,350.0,3.7,1.08
0.86,0.0,550.0,0.0,30.0,0,200.0,0.0,1,1,54.0,1.0,0.018,0.093,0.01,388.0,2.475,0.0
0.82,0.0,900.0,0.0,33.0,0,200.0,0.0,1,1,45.0,1.0,0.014,0.1,0.012,356.0,4.8,0.0
1.36,0.0,550.0,0.0,30.0,0,200.0,0.0,1,1,85.0,1.0,0.019,0.089,0.005,436.0,2.475,0.0
1.19,0.0,900.0,0.0,33.0,0,200.0,0.0,1,1,78.0,1.0,0.015,0.09,0.007,413.0,4.8,0.0
1.24,0.0,550.0,0.0,30.0,0,200.0,0.0,1,1,61.0,1.0,0.018,0.078,0.012,394.0,2.475,0.0
1.61,0.0,450.0,0.0,30.0,0,200.0,0.0,1,1,105.0,1.0,0.021,0.077,0.012,455.0,2.025,0.0
1.01,0.0,190.0,0.0,23.0,1,200.0,0.0,1,0,79.0,1.0,0.01,0.061,0.009,449.0,1.0925,0.0
1.55,0.0,650.0,0.0,30.0,0,200.0,0.0,1,1,72.0,1.0,0.018,0.073,0.012,441.0,2.925,0.0
1.12,0.0,550.0,0.0,30.0,0,200.0,0.0,1,1,26.0,1.0,0.021,0.066,0.017,455.0,2.475,0.0
1.45,0.0,450.0,0.0,30.0,0,200.0,0.0,1,1,37.0,1.0,0.027,0.07,0.015,530.0,2.025,0.0
1.14,0.0,650.0,0.0,30.0,0,200.0,0.0,1,1,46.0,1.0,0.018,0.073,0.015,479.0,2.925,0.0
1.53,0.0,550.0,0.0,30.0,0,200.0,0.0,1,1,72.0,1.0,0.022,0.071,0.012,577.0,2.475,0.0
0.64,0.0,154.728,0.000362161,23.9098,1,250.0,2.24687,1,0,63.0,1.0,0.007,0.073,0.008,,1.0,0.0
0.63,0.0,269.719,0.073425,30.7281,1,250.0,-34.0465,1,0,70.0,1.0,0.008,0.064,0.006,,1.0,0.0
0.62,0.0,124.243,-0.0467006,15.4294,1,250.0,129.897,1,0,72.0,1.0,0.007,0.062,0.007,457.0,1.0,0.0
0.66,0.0,120.713,0.0767982,14.6141,1,250.0,152.602,1,0,79.0,1.0,0.008,0.07,0.006,,1.0,0.24
0.66,0.0,226.497,-0.058686,17.1718,1,250.0,126.824,1,0,75.0,1.0,0.007,0.073,0.007,,1.0,0.5
0.65,1.01,215.966,0.0528212,10.5191,1,250.0,303.569,1,0,78.0,1.0,0.01,0.07,0.008,481.0,1.0,0.0
0.58,1.59,112.228,-0.154266,31.2141,1,250.0,233.255,1,0,89.0,1.0,0.01,0.074,0.008,,1.0,0.0
0.64,2.1,227.245,0.0864718,14.072,1,250.0,511.2,1,0,81.0,1.0,0.008,0.076,0.008,,1.0,0.0
0.62,0.0,287.723,-0.129405,26.7508,1,250.0,-94.9785,1,0,72.0,1.0,0.009,0.065,0.007,439.0,1.0,0.0
0.64,0.0,137.927,0.0230212,15.9,1,250.0,422.143,1,0,60.0,1.0,0.008,0.064,0.007,,1.0,0.0
0.64,0.0,193.583,0.00892347,28.0341,1,250.0,157.946,1,0,77.0,1.0,0.004,0.073,0.005,,1.0,0.0
0.61,0.0,329.341,-0.0578109,15.5679,1,250.0,179.195,1,0,91.0,1.0,0.007,0.064,0.007,461.0,1.0,0.0
0.65,0.0,234.569,-0.0422572,14.1833,1,250.0,280.101,1,0,72.0,1.0,0.007,0.067,0.007,,1.0,0.0
0.68,0.0,254.526,-0.0184182,14.3843,1,250.0,215.276,1,0,67.0,1.0,0.008,0.069,0.006,,1.0,0.24
0.66,0.0,208.21,0.0012706,5.45741,1,250.0,3.63028,1,0,76.0,1.0,0.007,0.072,0.007,565.0,1.0,1.03
0.66,1.03,185.582,-0.000144357,31.1681,1,250.0,351.01,1,0,75.0,1.0,0.01,0.077,0.008,,1.0,0.0
0.62,1.6,237.093,-0.0564806,24.589,1,250.0,261.037,1,0,100.0,1.0,0.005,0.078,0.007,,1.0,0.0
0.64,0.0,284.897,-0.0308401,21.2433,1,250.0,92.081,1,0,74.0,1.0,0.008,0.063,0.008,417.0,1.0,0.0
0.63,0.0,218.766,-0.0749552,20.6427,1,250.0,15.8635,1,0,65.0,1.0,0.007,0.064,0.007,,1.0,0.0
0.67,0.0,250.145,-0.0919068,1.35979,1,250.0,140.128,1,0,55.0,1.0,0.008,0.066,0.006,,1.0,0.0
1.39,0.0,122.998,0.0310863,9.57476,1,250.0,102.651,1,0,76.0,1.0,0.007,0.073,0.007,470.0,1.0,0.0
1.48,0.0,56.4994,-0.0684849,16.8463,1,250.0,365.115,1,0,87.0,1.0,0.012,0.071,0.007,,1.0,0.0
1.43,0.0,170.455,0.0227501,13.2326,1,250.0,69.3956,1,0,77.0,1.0,0.006,0.073,0.008,,1.0,0.0
1.45,0.0,298.626,-0.0185983,37.3198,1,250.0,4.85624,1,0,78.0,1.0,0.006,0.076,0.008,523.0,1.0,0.5
1.41,0.0,106.094,-0.058814,9.24267,1,250.0,68.7751,1,0,85.0,1.0,0.006,0.076,0.008,,1.0,1.11
1.48,1.07,129.558,-0.0473199,9.53404,1,250.0,-388.086,1,0,94.0,1.0,0.006,0.08,0.007,,1.0,0.0
1.44,1.96,94.4719,0.0753614,19.2822,1,250.0,13.3184,1,0,84.0,1.0,0.007,0.076,0.007,637.0,1.0,0.0
1.47,0.0,157.14,0.0296377,32.8638,1,250.0,-61.107,1,0,96.0,1.0,0.007,0.08,0.007,,1.0,0.0
1.41,0.0,258.885,0.0417598,34.7464,1,250.0,-60.7253,1,0,89.0,1.0,0.008,0.075,0.006,,1.0,0.0
1.46,0.0,130.32,-0.0589563,15.2279,1,250.0,101.773,1,0,79.0,1.0,0.008,0.074,0.008,460.0,1.0,0.0
1.48,0.0,103.38,-0.0125829,3.82003,1,250.0,27.8857,1,0,81.0,1.0,0.006,0.076,0.008,,1.0,0.0
1.46,0.0,307.951,-0.124599,24.9626,1,250.0,19.531,1,0,78.0,1.0,0.007,0.068,0.008,,1.0,0.0
1.49,0.0,197.173,0.124608,34.4827,1,250.0,-67.618,1,0,89.0,1.0,0.008,0.076,0.008,560.0,1.0,0.25
1.46,0.0,201.612,-0.0229773,23.5162,1,250.0,-9.24519,1,0,86.0,1.0,0.007,0.075,0.008,,1.0,0.5
1.44,0.0,162.907,-0.0145645,23.077,1,250.0,295.234,1,0,83.0,1.0,0.008,0.075,0.008,,1.0,1.07
1.53,1.53,355.866,0.000784102,31.1641,1,250.0,286.368,1,0,79.0,1.0,0.01,0.073,0.007,650.0,1.0,0.0
1.48,1.96,126.944,0.0608333,19.3324,1,250.0,-37.1053,1,0,82.0,1.0,0.01,0.078,0.007,,1.0,0.0
1.48,0.0,187.39,0.100835,18.9332,1,250.0,-64.6637,1,0,81.0,1.0,0.008,0.076,0.007,,1.0,0.0
1.37,0.0,231.262,-0.0378247,21.6744,1,250.0,69.0944,1,0,75.0,1.0,0.009,0.069,0.007,570.0,1.0,0.0
0.55,8.6,450.0,0.19,30.0,0,760.0,500.0,1,1,376.0,1.0,0.017,0.088,0.008,830.0,2.0,0.98
0.88,8.4,450.0,0.19,30.0,0,760.0,1000.0,1,1,394.0,1.0,0.017,0.088,0.008,822.0,2.0,0.94
0.88,10.2,450.0,0.28,30.0,0,760.0,669.834,1,1,103.0,1.0,0.017,0.18,0.008,,2.0,0.94